Timestamp,Ax,Ay,Az,Rx,Ry,Rz,Temp,Pressure,Mx,My,Mz,Gx,Gy,Gz
3287957,-0.073688,0.995032,0.00732,0.1575,-0.525,-2.8525,32.560001,982.349976,0.2715,-0.0615,-0.2445,-0.800000, 0.100000,-0.700000
3287987,-0.077104,0.996008,0.008296,0.1575,-0.14,-2.87,32.560001,983.630005,0.2655,-0.0585,-0.2475, 0.000000, 0.400000,-0.100000
3288017,-0.079056,0.997472,0.00244,0.07,-0.84,-2.8,32.490002,982.849976,0.27,-0.066,-0.2475, 0.100000, 0.400000,-0.200000
3288047,-0.078568,0.998936,-0.003904,0.175,-0.5425,-2.8875,32.529999,983.340027,0.2745,-0.0615,-0.2535, 0.200000, 0.900000,-0.400000
3288077,-0.082472,0.997472,-0.001464,0.1225,-0.35,-2.8525,32.509998,983.309998,0.2715,-0.0615,-0.2475, 0.100000,-0.200000,-0.500000
3288107,-0.088816,0.996496,-0.00244,0.07,-0.9625,-2.7825,32.529999,983.559998,0.267,-0.0615,-0.258,-0.800000, 0.500000, 0.500000
3288137,-0.088816,0.999912,-0.00244,0.0175,-0.245,-2.73,32.560001,983.409973,0.273,-0.0615,-0.2505, 0.000000,-0.100000, 0.200000
3288167,-0.0976,0.997472,-0.004392,0.07,-0.1575,-2.555,32.57,983.02002,0.2685,-0.063,-0.2445, 0.400000,-0.100000, 0.200000
3288198,-0.094672,0.992104,-0.007808,-0.07,-0.07,-2.45,32.59,982.419983,0.27,-0.0645,-0.2535, 0.700000,-0.500000, 0.300000
3288228,-0.088816,0.994544,-0.006832,-0.0875,-0.245,-2.38,32.610001,983.299988,0.2655,-0.0615,-0.2535,-0.200000, 0.400000,-0.900000
3288258,-0.084912,0.997472,-0.01464,-0.14,0.3325,-2.1875,32.509998,982.880005,0.2745,-0.0675,-0.249,-0.200000,-0.500000,-0.900000
3288288,-0.084424,0.994056,-0.001952,-0.2975,-0.28,-2.2925,32.509998,983.950012,0.2655,-0.0585,-0.2445, 0.400000,-0.200000,-0.400000
3288318,-0.081984,0.994544,-0.00732,-0.35,0.5775,-2.1525,32.560001,983.409973,0.27,-0.066,-0.24, 0.700000,-1.000000, 0.000000
3288348,-0.093208,0.994544,-0.006832,-0.3675,0.84,-2.135,32.57,983.22998,0.273,-0.054,-0.249, 0.400000,-1.000000, 0.300000
3288378,-0.087352,0.999912,-0.005368,-0.42,-0.035,-1.96,32.540001,982.73999,0.27,-0.0705,-0.2535, 0.400000, 0.100000,-0.500000
3288408,-0.07076,0.994544,0.005856,-0.49,0.28,-1.855,32.59,982.630005,0.264,-0.06,-0.2445, 1.600000,-0.600000, 0.300000
3288438,-0.07564,0.997472,0.003904,-0.35,0.8225,-2.0125,32.529999,982.070007,0.279,-0.063,-0.2445,-0.100000, 0.200000, 0.500000
3288468,-0.07076,0.998448,0.001952,-0.4375,0.3325,-1.8725,32.57,983.659973,0.267,-0.069,-0.2625,-0.500000,-0.600000, 0.600000
3288499,-0.05856,0.995032,0.0122,-0.385,0.0175,-2.0125,32.48,982.599976,0.273,-0.0555,-0.2415,-0.200000, 0.000000, 0.400000
3288529,-0.055632,0.99552,0.005368,-0.3325,0.56,-2.1875,32.59,981.780029,0.2655,-0.0555,-0.246,-0.600000,-0.500000,-0.400000
3288559,-0.065392,0.998448,0.009272,-0.3675,-0.2275,-2.2925,32.560001,983.409973,0.267,-0.06,-0.252,-0.600000, 0.700000, 0.300000
3288589,-0.04636,0.994544,0.014152,-0.35,-0.21,-2.31,32.509998,983.52002,0.2625,-0.063,-0.2475,-0.700000,-0.100000, 0.200000
3288619,-0.051728,0.997472,0.020008,-0.2275,0.105,-2.625,32.540001,983.380005,0.273,-0.0555,-0.249,-0.300000,-0.400000,-0.100000
3288649,-0.061,0.999424,0.01952,-0.035,-0.1925,-2.765,32.509998,983.73999,0.2745,-0.0615,-0.246, 0.400000,-0.800000,-0.200000
3288679,-0.055632,0.996984,0.023912,0.0175,-0.7,-2.8175,32.48,981.960022,0.27,-0.0555,-0.2505, 0.400000,-0.200000, 0.700000
3288709,-0.050752,0.997472,0.01952,0.14,-0.07,-2.9225,32.560001,983.630005,0.261,-0.0675,-0.249, 0.000000,-0.500000,-0.500000
3288739,-0.05368,0.998448,0.009272,0.28,-0.7175,-3.0625,32.57,984.090027,0.2655,-0.063,-0.24, 0.300000, 0.500000,-0.500000
3288769,-0.05612,0.995032,0.016104,0.315,-1.4175,-3.2025,32.59,982.630005,0.2685,-0.0645,-0.2595, 0.500000,-0.300000,-0.200000
3288800,-0.061976,0.993568,0.01464,0.4025,-0.91,-3.43,32.560001,983.840027,0.267,-0.06,-0.2475, 0.200000, 0.700000, 0.400000
3288830,-0.078568,0.997472,0.010248,0.49,-0.735,-3.5,32.560001,982.98999,0.27,-0.0675,-0.255,-0.600000, 0.800000, 0.400000
3288860,-0.083448,0.996008,0.011712,0.56,-1.715,-3.4125,32.57,982.169983,0.2715,-0.057,-0.249, 0.000000, 0.300000, 0.000000
3288890,-0.077592,0.99796,0.008784,0.5775,-1.0325,-3.43,32.529999,982.700012,0.273,-0.0675,-0.2505,-1.100000,-0.900000, 0.200000
3288920,-0.093208,0.995032,0.00244,0.595,-0.77,-3.3425,32.529999,983.340027,0.2745,-0.0615,-0.249,-0.100000, 0.300000,-0.100000
3288950,-0.088816,0.996984,-0.000976,0.595,-1.26,-3.2725,32.610001,982.659973,0.2655,-0.06,-0.246,-0.100000,-0.200000, 0.700000
3288980,-0.091744,0.99552,-0.005368,0.5425,-0.84,-3.15,32.560001,982.98999,0.2625,-0.0675,-0.246,-0.600000, 0.600000, 0.400000
3289010,-0.10004,0.992592,-0.016104,0.455,-1.155,-3.08,32.66,983.830017,0.2685,-0.066,-0.2535, 0.300000, 0.200000, 0.200000
3289040,-0.093208,0.997472,-0.013176,0.315,-0.8225,-2.87,32.57,984.51001,0.2745,-0.066,-0.2475, 0.400000,-0.100000,-0.100000
3289071,-0.106872,0.991616,-0.018544,0.2625,-0.2975,-2.87,32.48,983.030029,0.2775,-0.0705,-0.252,-0.200000, 0.800000, 0.200000
3289101,-0.106872,0.992104,-0.022448,0.0875,-0.6125,-2.59,32.610001,982.450012,0.273,-0.069,-0.2445,-0.300000, 0.200000, 0.500000
3289131,-0.103944,1.0004,-0.020984,-0.07,-0.315,-2.31,32.459999,982.98999,0.2685,-0.0615,-0.2505,-0.900000,-0.300000,-0.800000
3289161,-0.101016,0.993568,-0.02196,-0.1925,0.4725,-2.31,32.560001,983.409973,0.2655,-0.054,-0.243, 0.300000, 0.300000, 0.100000
3289191,-0.099552,0.994544,-0.025376,-0.385,0.35,-2.0475,32.560001,983.200012,0.2775,-0.0705,-0.2445, 0.400000, 0.400000,-0.600000
3289221,-0.0854,0.996496,-0.020496,-0.5075,-0.14,-2.0125,32.529999,983.559998,0.2655,-0.0735,-0.249, 0.400000, 0.500000, 0.000000
3289251,-0.083448,0.994544,-0.014152,-0.6825,1.0325,-1.89,32.57,984.090027,0.27,-0.063,-0.246, 0.100000, 0.600000,-0.200000
3289281,-0.082472,0.99552,-0.007808,-0.7875,0.7,-1.8725,32.560001,983.840027,0.267,-0.06,-0.2475,-0.700000,-0.700000, 0.200000
3289311,-0.08052,0.994544,0.005856,-0.875,0.7175,-1.8025,32.540001,983.590027,0.2715,-0.0555,-0.2445, 0.500000,-0.500000, 0.200000
3289341,-0.072712,0.993568,0.0122,-0.77,0.7175,-1.82,32.57,982.809998,0.279,-0.0645,-0.255,-0.700000, 0.000000,-0.500000
3289372,-0.069296,0.997472,0.018056,-0.7525,0.5075,-1.8025,32.529999,983.340027,0.276,-0.072,-0.252,-0.100000, 0.700000,-0.600000
3289402,-0.054656,0.99796,0.026352,-0.56,0.2625,-1.995,32.560001,983.840027,0.2685,-0.057,-0.2505,-0.500000,-0.700000,-0.100000
3289432,-0.0488,0.994544,0.030256,-0.42,0.6475,-2.17,32.509998,983.52002,0.2685,-0.063,-0.2475,-0.100000, 0.400000, 0.400000
3289462,-0.052216,0.997472,0.024888,-0.21,0.0525,-2.3275,32.57,982.590027,0.2655,-0.0615,-0.249, 0.100000,-0.100000,-0.600000
3289492,-0.051728,0.996984,0.02928,-0.07,-0.455,-2.3975,32.57,983.450012,0.2715,-0.0555,-0.252,-0.600000, 0.400000,-0.200000
3289522,-0.049776,0.996496,0.024888,0.175,-0.245,-2.6425,32.59,981.780029,0.2655,-0.0585,-0.2535, 0.400000, 0.600000, 0.000000
3289552,-0.060024,0.997472,0.025864,0.2625,-0.2275,-2.765,32.490002,983.48999,0.279,-0.0585,-0.2445,-0.500000, 0.300000, 0.500000
3289582,-0.061488,0.997472,0.02196,0.3675,-0.7875,-2.87,32.560001,982.77002,0.2685,-0.0675,-0.2445,-0.500000, 0.600000,-0.300000
3289612,-0.055144,0.998448,0.017568,0.5775,-0.9275,-3.01,32.560001,983.840027,0.279,-0.0675,-0.255, 0.300000,-0.300000,-0.500000
3289642,-0.054656,0.996496,0.008296,0.63,-0.8225,-3.1675,32.619999,983.119995,0.2745,-0.06,-0.255, 0.400000, 0.500000, 0.500000
3289673,-0.063928,0.994056,0.001464,0.6475,-1.4,-3.2025,32.540001,983.590027,0.264,-0.06,-0.252,-0.600000, 0.500000,-0.500000
3289703,-0.07076,0.996984,-0.00976,0.5775,-1.33,-3.36,32.59,983.47998,0.267,-0.066,-0.255,-0.600000,-0.700000, 0.500000
3289733,-0.077592,0.996984,-0.008784,0.5075,-0.595,-3.29,32.529999,982.48999,0.2655,-0.0645,-0.2565, 0.200000,-0.300000, 0.200000
3289763,-0.08784,0.995032,-0.011224,0.385,-0.9625,-3.185,32.560001,983.630005,0.276,-0.06,-0.249,-0.100000,-0.700000, 0.400000
3289793,-0.085888,0.99552,-0.002928,0.35,-0.8575,-3.15,32.540001,983.590027,0.27,-0.0645,-0.2505,      NaN,      NaN,      NaN
3289823,-0.083936,0.998936,-0.005856,0.2975,-0.805,-3.1325,32.509998,983.099976,0.2715,-0.0585,-0.2475,-0.100000,-0.600000, 0.500000
3289853,-0.09272,0.992592,-0.00488,0.21,-0.42,-3.0275,32.59,983.059998,0.267,-0.069,-0.255,-0.300000, 0.300000,-0.500000
3289883,-0.088816,0.996984,-0.017568,0.175,-0.6475,-3.01,32.48,982.809998,0.276,-0.063,-0.2475,-0.600000, 0.700000,-0.100000
3289913,-0.097112,0.994544,-0.021472,0.035,-0.665,-2.8,32.529999,983.340027,0.267,-0.0675,-0.2445, 1.000000, 0.600000,-0.300000
3289943,-0.096624,0.996008,-0.01708,-0.175,-0.245,-2.8,32.639999,983.590027,0.2655,-0.063,-0.2475, 0.800000,-1.400000,-0.600000
3289974,-0.112728,0.994056,-0.017568,-0.35,0.3325,-2.52,32.560001,984.049988,0.2715,-0.066,-0.2505, 0.000000, 0.700000,-0.400000
3290004,-0.0976,0.994056,-0.006344,-0.5425,0.0875,-2.3975,32.509998,983.309998,0.2655,-0.0645,-0.2475,-0.600000,-0.100000,-0.600000
3290034,-0.099552,0.996984,0.001952,-0.4725,0.0525,-2.0825,32.529999,981.640015,0.27,-0.066,-0.2445, 0.400000,-0.300000,-0.100000
3290064,-0.084424,0.99796,0.010248,-0.5425,0.6475,-2.0125,32.48,981.75,0.273,-0.06,-0.2505,-0.600000, 0.600000, 0.500000
3290094,-0.081496,0.993568,0.012688,-0.3675,0.5075,-1.9425,32.529999,981.640015,0.27,-0.069,-0.258, 0.400000,-0.900000,-0.600000
3290124,-0.076128,0.99796,0.006344,-0.3325,0.245,-1.995,32.57,983.659973,0.276,-0.06,-0.24, 0.400000, 1.100000, 0.600000
3290154,-0.072224,0.996984,0.00488,-0.315,0.385,-1.925,32.509998,981.820007,0.27,-0.0615,-0.2535, 0.400000, 0.400000, 0.300000
3290184,-0.066368,0.996496,0.001952,-0.35,0.035,-2.1,32.610001,984.369995,0.2685,-0.063,-0.2535,-0.800000, 0.600000,-0.600000
3290214,-0.061976,0.996496,0.006832,-0.42,0.175,-2.1525,32.59,984.549988,0.2715,-0.066,-0.2475,-0.100000, 1.100000, 0.600000
3290244,-0.07076,0.997472,0.010248,-0.3325,0.0,-2.205,32.509998,982.460022,0.2685,-0.063,-0.243, 0.000000, 0.700000,-0.100000
3290275,-0.06832,0.996496,0.018056,-0.3325,0.3325,-2.17,32.540001,982.950012,0.2715,-0.066,-0.2475,-0.500000,-0.100000, 0.400000
3290305,-0.054168,0.996984,0.02196,-0.175,0.0525,-2.415,32.540001,982.73999,0.2775,-0.063,-0.2445, 0.100000,-0.100000, 0.400000
3290335,-0.05124,0.99552,0.022936,0.0,-0.1925,-2.52,32.540001,983.590027,0.2685,-0.0675,-0.249,-0.200000, 0.400000,-0.700000
3290365,-0.045872,0.995032,0.01952,0.1575,-0.385,-2.695,32.509998,983.309998,0.267,-0.066,-0.246,-0.300000,-0.200000,-0.100000
3290395,-0.054168,0.997472,0.011224,0.1575,-0.665,-2.8525,32.560001,983.200012,0.2715,-0.0645,-0.2535,-0.100000, 0.200000, 0.600000
3290425,-0.052704,0.996984,0.005856,0.28,-0.9975,-3.045,32.57,983.22998,0.2715,-0.066,-0.2445,-0.700000,-0.800000, 0.500000
3290455,-0.064416,0.996984,0.005368,0.2625,-1.015,-3.22,32.59,983.47998,0.273,-0.0615,-0.2535, 0.400000, 0.000000, 0.200000
3290485,-0.073688,0.996496,0.003904,0.2625,-0.6125,-3.2375,32.560001,983.200012,0.2745,-0.0675,-0.2445, 0.600000, 0.000000, 0.100000
3290515,-0.076616,0.999424,0.006344,0.2975,-1.05,-3.2025,32.560001,983.409973,0.2775,-0.0585,-0.2325, 0.100000, 0.600000,-0.200000
3290545,-0.076128,0.998936,0.008784,0.2975,-0.6475,-3.2025,32.540001,983.590027,0.273,-0.066,-0.246,-0.600000, 0.100000, 0.400000
3290576,-0.085888,0.996008,0.00488,0.3675,-0.7875,-3.1325,32.540001,982.530029,0.2745,-0.06,-0.2505, 0.700000, 0.000000, 0.400000
3290606,-0.082472,0.99552,0.000488,0.315,-0.9975,-3.0975,32.560001,982.349976,0.2685,-0.057,-0.249, 0.100000,-0.100000,-0.200000
3290636,-0.080032,0.996984,-0.00244,0.35,-0.56,-3.115,32.560001,983.409973,0.267,-0.0645,-0.2475,      NaN,      NaN,      NaN
3290666,-0.088328,0.996008,-0.011712,0.28,-0.77,-3.08,32.560001,982.559998,0.264,-0.0675,-0.2415,-0.600000,-0.900000,-0.800000
3290696,-0.095648,0.994056,-0.010248,0.105,-0.6825,-2.9225,32.540001,983.590027,0.27,-0.066,-0.2565,-0.500000, 0.000000, 0.000000
3290726,-0.100528,0.996984,-0.008784,0.105,-0.525,-2.835,32.560001,984.049988,0.273,-0.06,-0.24, 0.000000,-0.700000,-0.200000
3290756,-0.10736,0.99796,-0.009272,-0.0525,-0.14,-2.5025,32.57,983.02002,0.267,-0.06,-0.2535,-0.400000,-0.800000, 0.000000
3290786,-0.104432,0.996008,-0.006344,-0.0525,-0.4375,-2.415,32.540001,981.890015,0.2685,-0.063,-0.2445, 0.600000,-0.700000,-0.200000
3290816,-0.090768,0.99552,-0.00488,-0.1925,0.3675,-2.2225,32.560001,983.200012,0.267,-0.0615,-0.255,-0.500000, 1.100000, 0.100000
3290847,-0.088328,0.992592,-0.006832,-0.2625,0.315,-2.1175,32.540001,983.380005,0.27,-0.066,-0.2415,-0.500000,-1.000000, 0.100000
3290877,-0.0732,0.995032,-0.003416,-0.315,0.035,-2.1175,32.560001,983.840027,0.2715,-0.0705,-0.237,-0.600000,-0.400000, 0.300000
3290907,-0.070272,0.996496,-0.002928,-0.35,0.315,-2.1875,32.509998,983.099976,0.2655,-0.066,-0.2505,-0.500000, 0.800000, 0.000000
3290937,-0.074176,0.997472,-0.003416,-0.385,0.1925,-2.205,32.509998,982.669983,0.276,-0.06,-0.2445, 0.000000, 0.500000,-0.100000
3290967,-0.071248,0.995032,0.000976,-0.4725,-0.0525,-2.205,32.490002,982.849976,0.273,-0.0615,-0.2445, 0.400000, 0.800000, 0.500000
3290997,-0.07076,0.993568,0.005856,-0.4375,0.4025,-2.275,32.57,984.090027,0.267,-0.066,-0.258,-0.400000,-0.400000,-0.200000
3291027,-0.074176,1.0004,0.00732,-0.42,0.1925,-2.2575,32.560001,983.409973,0.2685,-0.069,-0.249,-0.800000, 0.600000, 0.500000
3291057,-0.063928,0.996008,0.0122,-0.4375,0.1225,-2.205,32.459999,982.780029,0.2655,-0.0615,-0.2505, 0.800000, 0.300000,-0.200000
3291087,-0.061976,0.996984,0.013664,-0.35,0.455,-2.3625,32.529999,982.919983,0.276,-0.06,-0.2505, 0.400000,-0.800000, 0.600000
3291117,-0.058072,0.997472,0.011224,-0.2975,0.35,-2.4675,32.560001,983.630005,0.2625,-0.0645,-0.258,-0.600000, 0.100000, 0.300000
3291148,-0.05612,0.998448,0.015616,-0.2275,-0.35,-2.5375,32.560001,982.349976,0.267,-0.066,-0.27,-0.900000,-0.900000, 0.400000
3291178,-0.054168,0.99552,0.016104,-0.2275,-0.105,-2.7125,32.560001,982.77002,0.267,-0.0645,-0.2445,-0.100000,-0.400000, 0.700000
3291208,-0.06588,0.999912,0.01952,-0.0525,-0.3675,-2.905,32.540001,982.530029,0.27,-0.066,-0.2505,-0.500000, 0.600000,-0.500000
3291238,-0.074664,0.996496,0.016104,0.105,-0.5775,-2.8525,32.59,984.330017,0.276,-0.0675,-0.2535, 0.300000,-0.200000, 0.100000
3291268,-0.079544,0.99552,0.018056,0.1575,-0.7175,-2.835,32.59,983.690002,0.273,-0.0615,-0.249, 0.800000,-0.300000, 0.600000
3291298,-0.078568,0.998448,0.011224,0.245,-0.315,-2.835,32.540001,983.590027,0.27,-0.0645,-0.2475, 0.300000, 0.700000,-0.600000
3291328,-0.073688,0.99796,0.011224,0.2975,-0.49,-2.835,32.59,983.059998,0.261,-0.0615,-0.2445,-0.200000, 0.700000,-0.700000
3291358,-0.06832,0.996496,0.008296,0.3325,-0.84,-2.8,32.610001,984.789978,0.27,-0.069,-0.2595, 0.300000, 0.600000,-0.500000
3291388,-0.069296,0.996496,0.009272,0.3325,-0.4725,-2.905,32.560001,983.630005,0.267,-0.069,-0.243, 0.600000,-0.600000, 0.100000
3291418,-0.07564,0.993568,0.004392,0.4375,-0.8225,-2.975,32.59,983.47998,0.276,-0.066,-0.2505, 0.600000, 0.100000,-0.500000
3291449,-0.08052,0.996984,0.001464,0.3675,-1.0325,-2.9225,32.529999,982.700012,0.2715,-0.063,-0.237,-0.700000, 0.000000, 0.600000
3291479,-0.089304,0.995032,0.002928,0.385,-0.91,-2.905,32.529999,982.700012,0.279,-0.063,-0.2415,-0.200000,-0.500000, 0.100000
3291509,-0.089792,0.999424,-0.004392,0.385,-0.5425,-2.765,32.509998,983.52002,0.267,-0.0645,-0.252, 0.000000, 0.000000, 0.100000
3291539,-0.091256,0.994544,0.001464,0.315,-0.735,-2.6775,32.57,983.869995,0.2655,-0.0615,-0.246, 0.000000,-0.800000,-0.700000
3291569,-0.081984,0.995032,-0.001464,0.35,-0.455,-2.59,32.560001,983.200012,0.2745,-0.0675,-0.2445, 0.300000, 0.300000, 0.400000
3291599,-0.081008,0.99308,-0.004392,0.21,-0.42,-2.5375,32.560001,982.77002,0.273,-0.06,-0.252, 0.000000,-0.300000,-0.300000
3291629,-0.071248,0.99796,-0.006832,0.175,-0.5775,-2.59,32.540001,984.02002,0.2715,-0.0645,-0.2535, 0.700000, 0.400000, 0.100000
3291659,-0.071248,0.992104,-0.010736,0.1575,-0.28,-2.52,32.509998,983.309998,0.273,-0.0645,-0.2445,-0.600000,-0.600000, 0.300000
3291689,-0.076128,0.993568,-0.011224,-0.0175,-0.42,-2.6425,32.540001,984.02002,0.2685,-0.063,-0.2445, 0.400000,-0.200000, 0.200000
3291719,-0.083936,0.998448,-0.013176,-0.0525,-0.5425,-2.66,32.560001,983.409973,0.261,-0.0675,-0.258, 0.200000, 0.300000,-0.100000
3291750,-0.089304,0.994544,-0.010736,-0.175,0.1575,-2.4675,32.610001,983.090027,0.2685,-0.057,-0.2475, 0.100000, 0.200000, 0.400000
3291780,-0.089792,0.994056,-0.010248,-0.28,-0.0175,-2.3275,32.490002,982.640015,0.276,-0.066,-0.2445, 0.300000, 0.700000, 0.300000
3291810,-0.079544,0.996008,-0.005368,-0.42,0.1575,-2.345,32.57,982.590027,0.276,-0.0615,-0.2355,-0.800000, 0.300000, 0.400000
3291840,-0.067832,0.998936,0.000488,-0.385,0.3325,-2.3975,32.57,983.450012,0.276,-0.066,-0.249,-0.100000,-1.000000, 0.000000
3291870,-0.066368,0.99308,-0.00244,-0.455,0.3325,-2.52,32.529999,982.280029,0.2685,-0.0615,-0.252,-0.600000, 0.500000, 0.100000
3291900,-0.055632,0.998448,0.005856,-0.49,-0.1575,-2.5025,32.529999,982.700012,0.2685,-0.0645,-0.2445, 0.100000, 0.600000,-0.500000
3291930,-0.060512,0.996984,0.010736,-0.42,0.0875,-2.73,32.529999,982.919983,0.2595,-0.0705,-0.2445, 0.400000,-0.300000, 0.500000
3291960,-0.072224,0.993568,0.0122,-0.3325,-0.07,-2.73,32.509998,982.030029,0.2805,-0.06,-0.24,-0.500000, 0.200000, 0.700000
3291990,-0.079544,0.994544,0.021472,-0.3675,-0.77,-2.73,32.540001,983.169983,0.282,-0.069,-0.249, 0.500000, 0.100000, 0.700000
3292020,-0.071248,0.998448,0.027328,-0.105,-0.105,-2.8,32.540001,983.169983,0.27,-0.0585,-0.249, 0.300000,-0.700000,-0.400000
3292051,-0.076616,0.996984,0.02684,0.0175,-0.105,-2.765,32.540001,983.380005,0.2625,-0.0645,-0.2595,-0.300000,-0.700000, 0.600000
3292081,-0.072712,0.996008,0.019032,0.1225,-0.7175,-2.6425,32.529999,983.340027,0.2745,-0.063,-0.246,-0.600000,-0.400000, 0.000000
3292111,-0.064904,0.99796,0.022448,0.245,-0.8225,-2.7825,32.57,983.22998,0.2715,-0.0645,-0.255,-0.600000, 0.400000,-0.200000
3292141,-0.066856,0.998448,0.018056,0.4025,-0.315,-2.87,32.560001,982.77002,0.276,-0.06,-0.24,-0.500000,-0.600000,-0.100000
3292171,-0.072224,0.994056,0.010736,0.385,-1.295,-2.905,32.560001,983.840027,0.2685,-0.0645,-0.2445,-0.200000, 0.300000,-0.800000
3292201,-0.07564,0.998448,0.01464,0.49,-1.05,-2.8,32.509998,982.880005,0.27,-0.0645,-0.2505,-0.600000, 0.600000,-0.100000
3292231,-0.081984,0.996496,0.004392,0.5775,-0.455,-2.9575,32.560001,982.349976,0.276,-0.0585,-0.252,-0.400000,-1.000000, 0.300000
3292261,-0.081984,0.99552,0.003416,0.525,-1.0675,-2.8175,32.57,984.090027,0.2715,-0.0615,-0.246,-0.400000, 0.800000, 0.300000
3292291,-0.076616,0.996008,-0.001952,0.595,-1.19,-2.8525,32.560001,983.200012,0.2685,-0.0615,-0.2475,-0.500000, 0.200000,-0.200000
3292322,-0.083936,0.992592,-0.010248,0.4725,-0.245,-2.8525,32.540001,983.590027,0.27,-0.0615,-0.2445, 0.500000, 0.000000,-0.300000
3292352,-0.083448,0.996984,-0.01708,0.4375,-0.7875,-2.7475,32.619999,983.76001,0.2775,-0.0675,-0.249,-0.400000, 0.000000, 0.200000
3292382,-0.074664,0.99308,-0.020496,0.245,-0.735,-2.695,32.490002,983.059998,0.2625,-0.063,-0.2535, 0.100000,-0.300000, 0.600000
3292412,-0.076128,0.99552,-0.020008,0.0875,-0.14,-2.8175,32.619999,982.909973,0.2625,-0.06,-0.2475, 0.000000,-0.600000,-0.800000
3292442,-0.084424,0.99796,-0.01708,-0.0875,-0.2975,-2.7825,32.48,982.390015,0.2745,-0.0615,-0.2475,-0.300000, 0.800000,-0.100000
3292472,-0.084912,0.997472,-0.008296,-0.175,-0.7175,-2.66,32.560001,983.409973,0.27,-0.0645,-0.249, 0.200000,-0.100000, 0.100000
3292502,-0.08784,0.999424,-0.005368,-0.2275,0.105,-2.695,32.59,983.059998,0.264,-0.0675,-0.2505, 0.900000, 0.400000,-0.100000
3292532,-0.099552,0.995032,-0.00976,-0.2625,0.0875,-2.59,32.57,983.450012,0.2715,-0.069,-0.261, 0.000000,-0.500000,-0.700000
3292562,-0.089792,0.992104,-0.008784,-0.3675,0.0525,-2.3975,32.529999,983.77002,0.264,-0.066,-0.261,-0.700000,-0.400000,-0.600000
3292592,-0.084912,0.99308,-0.005368,-0.385,0.0875,-2.3275,32.59,982.200012,0.267,-0.06,-0.2565,-0.800000, 0.300000,-0.400000
3292623,-0.085888,0.999424,-0.003904,-0.49,0.0875,-2.205,32.529999,982.700012,0.2685,-0.063,-0.2715, 0.500000,-0.800000, 0.200000
3292653,-0.072712,0.997472,0.006344,-0.56,0.035,-2.3275,32.57,983.869995,0.2685,-0.0615,-0.237,-0.700000, 0.100000, 0.500000
3292683,-0.080032,0.996008,0.014152,-0.4725,0.56,-2.2925,32.540001,982.73999,0.2655,-0.0675,-0.2445,-0.900000,-0.100000, 0.600000
3292713,-0.078568,0.99552,0.01464,-0.35,-0.105,-2.2925,32.619999,983.119995,0.2655,-0.0645,-0.255, 0.600000, 0.100000,-0.200000
3292743,-0.077104,0.994544,0.022448,-0.315,-0.1925,-2.275,32.57,983.659973,0.273,-0.0615,-0.2475,-0.600000,-1.200000,-0.400000
3292773,-0.074176,0.998936,0.020008,-0.14,0.455,-2.2575,32.59,983.059998,0.2715,-0.0615,-0.255,-0.500000,-0.900000, 0.600000
3292803,-0.070272,0.996984,0.016104,-0.0525,-0.4725,-2.31,32.490002,982.849976,0.2715,-0.06,-0.2565,-0.800000,-0.100000, 0.000000
3292833,-0.060512,0.996008,0.01952,0.105,-0.175,-2.2925,32.57,982.590027,0.276,-0.0615,-0.2475, 0.100000,-0.600000,-0.800000
3292863,-0.055144,0.99552,0.009272,0.1225,0.175,-2.5375,32.619999,983.549988,0.27,-0.06,-0.264, 0.600000,-1.000000,-0.500000
3292893,-0.06344,0.995032,0.012688,0.105,-0.49,-2.59,32.619999,983.340027,0.2685,-0.051,-0.2565,-0.200000,-0.500000,-0.300000
3292924,-0.055632,0.996008,0.011224,0.2625,-0.5775,-2.6775,32.619999,983.119995,0.273,-0.0585,-0.24,-0.100000,-0.200000,-0.300000
3292954,-0.066368,0.996496,0.010736,0.2625,-0.5075,-2.94,32.59,983.27002,0.2775,-0.0675,-0.2565, 0.100000,-0.800000,-0.800000
3292984,-0.068808,0.996008,0.003904,0.315,-0.56,-2.87,32.57,982.809998,0.276,-0.063,-0.237, 0.400000, 0.400000,-0.300000
3293014,-0.06832,0.996008,0.001464,0.35,-0.9625,-2.9575,32.529999,982.48999,0.267,-0.0615,-0.243,-0.100000, 0.300000,-0.100000
3293044,-0.065392,0.996496,-0.00244,0.28,-0.455,-3.0275,32.48,983.450012,0.27,-0.063,-0.255,-0.900000, 0.000000,-0.200000
3293074,-0.071736,0.998448,-0.006344,0.245,-0.77,-3.115,32.560001,982.349976,0.2745,-0.0615,-0.24, 0.300000, 0.600000, 0.500000
3293104,-0.078568,0.994544,-0.006832,0.175,-0.8575,-3.0975,32.610001,983.52002,0.261,-0.066,-0.249, 0.100000, 0.200000, 0.000000
3293134,-0.0732,0.993568,-0.00488,0.105,-0.4725,-3.01,32.529999,983.340027,0.27,-0.063,-0.252,-0.700000, 0.800000,-0.800000
3293164,-0.087352,0.994544,-0.003416,0.035,-0.6825,-3.15,32.509998,982.880005,0.2775,-0.066,-0.2475, 0.300000,-0.300000, 0.500000
3293194,-0.090768,0.996984,-0.003416,0.0,-0.6125,-2.975,32.540001,983.169983,0.27,-0.063,-0.2475,-0.800000, 0.400000, 0.400000
3293225,-0.092232,0.994056,0.0,-0.0175,-0.49,-2.8875,32.459999,983.419983,0.2745,-0.0645,-0.2385, 0.700000, 0.500000, 0.600000
3293255,-0.103456,0.996496,-0.001464,-0.035,-0.3675,-2.7825,32.57,983.450012,0.267,-0.069,-0.2385, 0.000000,-0.800000, 0.700000
3293285,-0.096624,0.996496,-0.00244,-0.105,-0.4025,-2.66,32.540001,982.73999,0.279,-0.066,-0.252,-0.100000,-0.800000,-0.200000
3293315,-0.0976,0.991616,-0.001952,-0.105,-0.035,-2.4675,32.639999,984.650024,0.27,-0.069,-0.2475, 0.600000,-0.200000, 0.600000
3293345,-0.092232,0.989664,-0.004392,-0.245,0.0875,-2.345,32.529999,984.200012,0.2775,-0.054,-0.246,-0.700000,-1.000000,-0.100000
3293375,-0.09272,0.991616,0.0,-0.21,-0.21,-2.2575,32.459999,982.570007,0.2685,-0.06,-0.249,-0.300000, 0.000000, 0.600000
3293405,-0.08296,0.995032,0.002928,-0.21,0.0175,-2.2225,32.560001,982.559998,0.27,-0.054,-0.2445,-0.700000,-0.300000,-0.600000
3293435,-0.086376,0.996496,0.002928,-0.2275,0.2625,-2.24,32.560001,982.77002,0.27,-0.0645,-0.237,-0.800000,-0.100000,-0.800000
3293465,-0.081984,0.996984,0.004392,-0.175,0.0525,-2.065,32.57,984.299988,0.2685,-0.0585,-0.255, 0.500000,-0.700000, 0.600000
3293495,-0.075152,0.995032,0.005856,-0.1925,-0.0875,-2.17,32.57,982.590027,0.273,-0.066,-0.2505, 0.400000, 0.700000,-0.200000
3293526,-0.066368,0.996984,0.003416,-0.1225,0.63,-2.135,32.610001,984.369995,0.2715,-0.0645,-0.2535,-0.300000,-0.900000,-1.000000
3293556,-0.071736,0.99552,0.001464,-0.1575,-0.0875,-2.2225,32.48,982.809998,0.2745,-0.063,-0.2565,-0.400000, 0.500000,-0.500000
3293586,-0.055632,0.998936,0.00488,-0.14,-0.4375,-2.2225,32.57,983.450012,0.2745,-0.069,-0.246,-0.600000,-0.100000, 0.000000
3293616,-0.052704,0.998448,0.006344,-0.105,0.14,-2.415,32.59,983.47998,0.2685,-0.06,-0.249,-0.500000,-0.500000, 0.100000
3293646,-0.061488,0.999424,0.006832,-0.0875,-0.2975,-2.5725,32.529999,984.409973,0.267,-0.063,-0.2535, 0.400000,-0.500000, 0.100000
3293676,-0.055632,0.99552,0.008296,-0.105,-0.1575,-2.73,32.610001,983.52002,0.2775,-0.0615,-0.2535, 0.400000,-0.300000, 0.300000
3293706,-0.062952,0.996008,0.011712,-0.035,-0.42,-2.8875,32.509998,982.880005,0.27,-0.066,-0.249, 0.500000,-0.800000, 0.300000
3293736,-0.067344,0.998448,0.011224,0.035,-0.4025,-2.8175,32.540001,982.950012,0.273,-0.0645,-0.24,-0.500000,-0.800000, 0.300000
3293766,-0.063928,0.999424,0.011712,0.1225,-0.63,-2.975,32.560001,982.77002,0.2715,-0.063,-0.24, 0.800000, 0.100000, 0.000000
3293796,-0.06832,0.997472,0.010736,0.0,-0.455,-2.8875,32.490002,983.909973,0.2745,-0.063,-0.2475, 0.000000, 0.500000,-0.600000
3293827,-0.065392,0.99796,0.008784,0.1575,-0.875,-3.0625,32.509998,983.73999,0.2685,-0.072,-0.2535, 0.700000,-0.800000, 0.300000
3293857,-0.076128,0.997472,0.007808,0.21,-0.63,-3.0975,32.59,983.690002,0.2715,-0.0555,-0.2535,-0.400000, 0.300000,-0.200000
3293887,-0.079056,0.996496,0.007808,0.175,-0.7175,-3.15,32.610001,983.090027,0.2655,-0.0585,-0.2415, 0.900000, 0.000000,-0.600000
3293917,-0.082472,0.99796,0.009272,0.245,-0.9625,-3.08,32.57,982.809998,0.276,-0.0555,-0.243,-0.700000, 0.300000,-0.200000
3293947,-0.086376,0.996496,0.00732,0.28,-0.56,-2.9925,32.59,983.27002,0.276,-0.0675,-0.2565, 0.400000, 0.800000,-0.300000
3293977,-0.093696,0.996984,0.003904,0.315,-1.2425,-2.94,32.57,983.02002,0.2685,-0.0615,-0.255,-0.400000, 0.000000,-0.100000
3294007,-0.087352,0.996008,0.003416,0.2975,-0.42,-2.765,32.560001,983.409973,0.2655,-0.066,-0.249,      NaN,      NaN,      NaN
3294037,-0.090768,0.996496,-0.002928,0.2975,-0.315,-2.695,32.490002,983.27002,0.2655,-0.0585,-0.246,-0.700000,-0.500000,-0.600000
3294067,-0.093208,0.997472,-0.00976,0.175,-0.7175,-2.59,32.57,982.380005,0.273,-0.0585,-0.246,-0.100000, 0.800000,-0.100000
3294098,-0.084424,0.996496,-0.005368,0.1225,-0.455,-2.5025,32.59,983.27002,0.2625,-0.063,-0.2475, 1.200000,-0.200000, 0.400000
3294128,-0.084912,0.997472,-0.011224,0.0525,0.28,-2.4675,32.610001,983.72998,0.273,-0.0585,-0.258,-0.600000, 0.700000,-0.100000
3294158,-0.084912,0.994056,-0.010248,-0.07,-0.1925,-2.485,32.540001,983.590027,0.2685,-0.06,-0.246, 0.500000,-0.600000, 0.000000
3294188,-0.079056,0.997472,-0.006832,-0.105,-0.3325,-2.3975,32.529999,983.340027,0.27,-0.0645,-0.2535, 0.800000,-0.100000, 0.400000
3294218,-0.082472,0.996496,-0.005368,-0.2625,0.4375,-2.3625,32.560001,984.47998,0.267,-0.06,-0.246,-0.600000, 0.500000, 0.200000
3294248,-0.086864,0.994056,-0.010736,-0.28,-0.0175,-2.2575,32.540001,983.169983,0.267,-0.0735,-0.2535,-0.900000,-0.800000, 0.500000
3294278,-0.076128,0.996984,-0.009272,-0.35,0.0175,-2.205,32.59,983.059998,0.2655,-0.057,-0.252,-0.600000, 0.500000, 0.300000
3294308,-0.081008,0.996984,-0.006344,-0.4375,0.385,-2.135,32.59,983.690002,0.2685,-0.069,-0.249,-0.500000, 0.400000, 0.300000
3294338,-0.072224,0.997472,-0.005368,-0.525,0.2625,-2.135,32.57,982.590027,0.273,-0.063,-0.243,-0.800000, 0.600000,-0.500000
3294368,-0.067344,0.996984,0.006344,-0.56,0.245,-2.275,32.610001,982.450012,0.2685,-0.066,-0.2505,-0.500000,-0.200000,-0.700000
3294399,-0.075152,0.999424,0.010736,-0.4375,0.175,-2.3625,32.529999,983.340027,0.2715,-0.063,-0.252, 0.500000,-0.800000,-0.100000
3294429,-0.071736,0.993568,0.015616,-0.4725,0.0,-2.415,32.540001,982.530029,0.2685,-0.069,-0.24, 0.500000, 0.500000,-0.200000
3294459,-0.069784,0.996984,0.019032,-0.2975,0.0175,-2.4325,32.610001,983.72998,0.2685,-0.066,-0.24,-0.600000, 0.200000,-0.100000
3294489,-0.069784,1.0004,0.015128,-0.245,-0.105,-2.4675,32.529999,982.700012,0.267,-0.0555,-0.249, 0.500000, 0.300000,-0.100000
3294519,-0.067344,0.993568,0.025864,-0.14,-0.0875,-2.4325,32.57,982.590027,0.2685,-0.057,-0.252,-0.600000,-0.600000, 0.600000
3294549,-0.088816,0.99796,0.016592,0.035,-0.2975,-2.835,32.529999,983.559998,0.2805,-0.066,-0.2475, 0.400000,-0.600000, 0.500000
3294579,-0.079056,0.996984,0.01952,0.07,-0.14,-2.625,32.560001,982.77002,0.2715,-0.06,-0.2505, 0.700000, 0.300000, 0.400000
3294609,-0.057096,0.996496,0.013176,0.1575,-0.6125,-2.73,32.560001,984.26001,0.2655,-0.0585,-0.2565, 0.300000,-0.200000, 0.200000
3294639,-0.064416,1.000888,0.011712,0.1925,-0.2275,-2.765,32.59,982.840027,0.2805,-0.066,-0.2475,-0.200000, 0.500000,-0.500000
3294669,-0.062464,0.998448,0.009272,0.315,-1.0675,-2.765,32.540001,983.799988,0.27,-0.066,-0.2535, 0.700000,-0.300000, 0.400000
3294700,-0.066856,1.0004,0.016592,0.2975,-0.98,-2.8175,32.509998,983.099976,0.267,-0.0645,-0.2505,-0.600000, 0.500000,-0.600000
3294730,-0.072712,0.99796,0.012688,0.4025,-0.56,-2.9575,32.610001,984.159973,0.279,-0.06,-0.2475, 0.300000, 0.500000, 0.000000
3294760,-0.0732,0.996496,0.0,0.49,-0.7875,-3.01,32.59,983.690002,0.2655,-0.0675,-0.2445, 0.300000,-1.000000, 0.500000
3294790,-0.076616,0.995032,-0.003416,0.385,-1.0325,-2.9575,32.450001,983.169983,0.2715,-0.072,-0.249, 0.300000, 0.000000, 0.200000
3294820,-0.076616,1.0004,-0.00976,0.3675,-0.595,-3.0275,32.57,983.22998,0.264,-0.063,-0.24, 0.000000, 0.500000,-0.200000
3294850,-0.077104,0.998448,-0.01464,0.2275,-0.665,-2.8175,32.59,983.47998,0.2685,-0.057,-0.252,-0.800000, 0.900000, 0.500000
3294880,-0.076616,0.995032,-0.002928,0.14,-0.8575,-2.8525,32.57,982.380005,0.27,-0.066,-0.2535,-0.200000,-1.000000,-0.100000
3294910,-0.0854,0.99552,-0.005368,0.105,-0.105,-2.87,32.490002,983.27002,0.276,-0.063,-0.252,-0.100000,-0.100000, 0.200000
3294940,-0.089792,0.993568,-0.002928,-0.0175,-0.2625,-2.8875,32.509998,983.73999,0.2655,-0.0645,-0.246,-0.400000, 0.500000, 0.500000
3294970,-0.09028,0.993568,-0.004392,0.035,-0.5425,-2.695,32.529999,982.919983,0.273,-0.0585,-0.255,-0.200000,-0.300000, 0.400000
3295001,-0.088328,0.995032,-0.003904,-0.105,-0.245,-2.6425,32.560001,981.919983,0.2655,-0.0615,-0.2415,-0.500000, 0.900000,-0.300000
3295031,-0.084912,0.993568,-0.00244,-0.105,-0.42,-2.555,32.57,982.380005,0.27,-0.063,-0.249, 0.100000, 0.400000, 0.400000
3295061,-0.083448,0.997472,0.000488,-0.1925,0.1225,-2.5725,32.59,984.119995,0.2625,-0.0585,-0.258, 0.000000,-0.600000, 0.500000
3295091,-0.092232,0.99796,-0.001464,-0.14,0.14,-2.485,32.560001,983.200012,0.267,-0.06,-0.246, 0.200000, 0.500000, 0.200000
3295121,-0.088328,0.995032,0.000488,-0.21,-0.2625,-2.2925,32.59,982.840027,0.2715,-0.0705,-0.2475, 0.200000, 0.400000,-0.700000
3295151,-0.08296,0.993568,0.007808,-0.21,0.0175,-2.345,32.529999,982.700012,0.267,-0.066,-0.249, 0.300000, 0.200000, 0.300000
3295181,-0.083448,0.996496,0.007808,-0.1925,0.2275,-2.2225,32.610001,983.72998,0.27,-0.06,-0.249,-0.200000,-0.800000,-0.500000
3295211,-0.0732,0.99308,0.00732,-0.1925,-0.245,-2.205,32.509998,983.309998,0.27,-0.0705,-0.249, 0.400000, 0.100000,-0.500000
3295241,-0.06832,0.99308,0.006832,-0.0875,-0.0175,-2.2925,32.59,983.690002,0.2685,-0.066,-0.249, 0.700000, 0.700000, 0.000000
3295271,-0.06344,0.99796,0.0,-0.105,-0.0525,-2.3975,32.459999,984.27002,0.27,-0.063,-0.246,-0.200000, 0.300000, 0.100000
3295302,-0.06344,0.991616,0.00244,-0.105,-0.3325,-2.3275,32.57,984.090027,0.2745,-0.0615,-0.249, 0.500000, 0.500000, 0.400000
3295332,-0.06588,0.992104,0.003904,-0.1225,-0.175,-2.485,32.59,983.059998,0.276,-0.063,-0.2505, 0.200000,-0.800000, 0.800000
3295362,-0.076616,0.99552,0.005368,-0.1225,0.07,-2.52,32.59,982.840027,0.2805,-0.0585,-0.2535,-0.900000,-0.600000, 0.400000
3295392,-0.067832,0.995032,0.005856,-0.105,-0.315,-2.5725,32.490002,982.849976,0.2775,-0.069,-0.258,-0.500000, 0.500000, 0.300000
3295422,-0.068808,0.994544,0.00732,-0.1225,-0.0875,-2.625,32.619999,983.549988,0.2775,-0.069,-0.252,-0.700000,-0.600000, 0.200000
3295452,-0.061,0.993568,0.008784,-0.0875,-0.28,-2.695,32.57,983.22998,0.267,-0.066,-0.246,-0.500000, 0.400000,-0.300000
3295482,-0.054656,0.995032,0.008296,-0.0525,-0.5775,-2.8175,32.540001,982.950012,0.2715,-0.0585,-0.249, 0.300000,-0.700000, 0.300000
3295512,-0.05856,0.991616,0.010736,0.0175,-0.595,-2.94,32.59,983.27002,0.2745,-0.063,-0.255, 0.400000,-1.100000, 0.100000
3295542,-0.071736,0.992592,0.006344,0.0525,-0.1925,-3.0625,32.59,982.419983,0.2715,-0.057,-0.249, 0.000000,-0.200000,-0.800000
3295572,-0.0854,0.996496,0.003416,0.0525,-0.3675,-3.0275,32.529999,983.340027,0.27,-0.0615,-0.2505,-0.700000, 0.700000,-0.600000
3295603,-0.087352,0.996496,0.00732,0.035,-0.7525,-2.94,32.619999,983.549988,0.27,-0.0585,-0.246,-0.700000, 0.500000, 0.000000
3295633,-0.085888,0.998448,0.00732,0.0525,-0.2975,-2.8175,32.66,983.409973,0.273,-0.063,-0.2505,-0.300000,-0.100000,-0.100000
3295663,-0.091256,0.994056,0.006344,0.105,-0.3325,-2.765,32.57,983.22998,0.267,-0.063,-0.261,-0.400000,-0.200000,-0.800000
3295693,-0.081008,0.994544,0.008296,0.14,-0.245,-2.625,32.540001,983.169983,0.2685,-0.063,-0.2535, 0.300000,-0.100000,-0.500000
3295723,-0.08052,0.998448,0.005856,0.14,-0.385,-2.73,32.529999,983.97998,0.2745,-0.0705,-0.249,-0.100000,-0.400000,-0.800000
3295753,-0.082472,0.996984,0.002928,0.14,-0.735,-2.6425,32.48,983.669983,0.27,-0.0555,-0.246, 0.600000,-0.600000,-0.100000
3295783,-0.077104,0.996496,0.005368,0.1575,-0.6125,-2.6775,32.560001,983.409973,0.27,-0.066,-0.261, 0.500000, 1.100000,-0.100000
3295813,-0.093208,0.994544,0.001464,0.1925,-0.35,-2.66,32.59,983.909973,0.267,-0.0615,-0.258,-0.500000,-0.300000, 0.100000
3295843,-0.091256,0.996008,-0.000488,0.14,-0.5775,-2.52,32.57,983.02002,0.2745,-0.075,-0.258, 0.200000,-0.200000, 0.300000
3295874,-0.09272,0.996008,-0.003904,0.07,-0.0175,-2.45,32.560001,982.98999,0.2715,-0.063,-0.2475,-0.500000,-0.300000, 0.700000
3295904,-0.092232,0.997472,-0.008784,0.0525,0.1925,-2.2925,32.529999,981.849976,0.27,-0.0675,-0.246, 0.600000,-0.800000,-0.100000
3295934,-0.072712,0.994544,-0.009272,-0.1225,0.0,-2.17,32.540001,983.169983,0.276,-0.0675,-0.2475, 0.400000, 0.000000, 0.000000
3295964,-0.067832,0.996984,-0.005856,-0.14,0.2625,-2.31,32.459999,984.059998,0.2745,-0.06,-0.2505, 0.400000, 1.100000, 0.500000
3295994,-0.062952,0.996984,-0.00488,-0.2275,0.21,-2.345,32.619999,981.630005,0.2685,-0.06,-0.261,-0.500000, 0.300000,-0.400000
3296024,-0.06344,0.993568,0.001464,-0.2625,-0.4725,-2.4675,32.560001,984.26001,0.2685,-0.0645,-0.2625,-0.500000,-0.700000, 0.600000
3296054,-0.070272,0.998448,0.003904,-0.1925,0.3325,-2.5375,32.59,982.840027,0.264,-0.069,-0.252,      NaN,      NaN,      NaN
3296084,-0.084424,0.998448,0.000488,-0.2275,-0.2625,-2.5375,32.560001,983.409973,0.264,-0.063,-0.2565,-0.900000, 0.200000, 0.200000
3296114,-0.080032,0.994544,-0.001952,-0.3325,-0.4025,-2.3625,32.529999,984.200012,0.27,-0.06,-0.2595,-0.500000, 0.400000,-0.600000
3296144,-0.070272,0.993568,0.001952,-0.3325,0.245,-2.3975,32.450001,982.960022,0.27,-0.0645,-0.243, 0.800000,-0.600000, 0.300000
3296175,-0.070272,0.996984,0.003416,-0.3675,0.35,-2.485,32.59,982.630005,0.267,-0.0675,-0.2535, 0.100000, 0.200000, 0.400000
3296205,-0.061976,0.995032,0.0122,-0.385,0.07,-2.485,32.529999,983.559998,0.27,-0.066,-0.246, 0.500000, 0.700000,-0.100000
3296235,-0.059536,0.998448,0.017568,-0.3325,0.175,-2.625,32.560001,982.98999,0.2685,-0.066,-0.249, 0.800000,-0.300000,-0.400000
3296265,-0.065392,0.994544,0.022448,-0.1925,0.14,-2.73,32.490002,983.700012,0.264,-0.0615,-0.249, 0.300000, 0.300000, 0.200000
3296295,-0.06344,0.997472,0.021472,0.0,-1.0325,-2.7825,32.59,983.059998,0.2715,-0.06,-0.24, 0.800000,-0.300000,-0.100000
3296325,-0.071248,0.996496,0.024888,0.105,-0.595,-2.8175,32.43,983.349976,0.2745,-0.066,-0.2565, 0.400000,-0.800000,-0.300000
3296355,-0.081008,0.998448,0.018056,0.2625,-0.3325,-2.87,32.59,981.780029,0.261,-0.06,-0.243,-0.600000, 0.400000, 0.400000
3296385,-0.087352,0.996496,0.008296,0.2625,-0.77,-2.7825,32.540001,982.950012,0.276,-0.0675,-0.249, 0.400000, 0.400000,-0.500000
3296415,-0.074664,0.995032,0.010736,0.28,-0.42,-2.7475,32.509998,983.099976,0.2715,-0.0585,-0.2475,-0.500000, 0.200000, 0.500000
3296445,-0.077104,0.996008,0.008784,0.2975,-0.3675,-2.695,32.57,984.090027,0.27,-0.072,-0.24, 0.400000,-0.300000,-0.800000
3296476,-0.064904,0.999912,0.008784,0.2625,-0.42,-2.695,32.560001,983.200012,0.2685,-0.063,-0.2535, 0.000000, 0.600000,-1.000000
3296506,-0.062464,0.997472,0.010248,0.385,-0.6825,-2.7825,32.48,983.880005,0.2715,-0.057,-0.2505,-0.500000,-1.000000, 0.200000
3296536,-0.06832,1.001376,0.008784,0.42,-0.6825,-2.94,32.560001,983.200012,0.2775,-0.0645,-0.2595,-0.500000, 0.200000,-0.600000
3296566,-0.076616,0.993568,0.00488,0.49,-1.3825,-2.9225,32.639999,983.369995,0.2655,-0.069,-0.2505, 0.000000, 0.900000,-0.700000
3296596,-0.078568,0.99552,-0.001952,0.49,-0.9975,-3.01,32.560001,982.130005,0.2655,-0.0675,-0.255, 0.400000, 0.100000,-0.700000
3296626,-0.08784,0.99552,-0.015616,0.42,-0.805,-2.9225,32.490002,982.849976,0.27,-0.066,-0.2505,-0.100000,-0.100000, 0.000000
3296656,-0.08784,0.99308,-0.01952,0.2625,-0.8925,-2.8525,32.59,983.47998,0.2745,-0.0705,-0.243, 0.800000,-0.800000, 0.500000
3296686,-0.081984,0.998448,-0.013176,0.07,-0.175,-2.73,32.610001,982.880005,0.2715,-0.0585,-0.249, 0.500000, 0.100000, 0.200000
3296716,-0.083936,0.996496,-0.016104,-0.0525,-0.245,-2.7125,32.610001,984.159973,0.264,-0.0675,-0.2505, 0.600000,-0.700000, 0.300000
3296746,-0.080032,0.99552,-0.00732,-0.1925,-0.175,-2.625,32.57,982.590027,0.2745,-0.0645,-0.2505, 0.800000,-0.800000,-0.200000
3296777,-0.08052,0.999912,-0.000976,-0.175,-0.245,-2.66,32.560001,983.200012,0.2685,-0.0645,-0.2475,-0.500000, 0.600000,-0.300000
3296807,-0.083936,0.999912,-0.003904,-0.2625,-0.0875,-2.66,32.610001,982.450012,0.2745,-0.066,-0.252,-0.100000, 0.600000,-0.800000
3296837,-0.083448,0.995032,-0.000488,-0.2625,-0.2625,-2.5725,32.560001,983.200012,0.2715,-0.057,-0.2505,-0.600000, 0.500000, 0.400000
3296867,-0.094672,0.995032,-0.001952,-0.3325,-0.035,-2.5375,32.540001,984.02002,0.273,-0.06,-0.258,-0.800000, 0.800000, 0.100000
3296897,-0.093696,0.996984,-0.002928,-0.315,0.105,-2.38,32.610001,983.090027,0.27,-0.0645,-0.255,-0.100000,-0.200000,-0.500000
3296927,-0.091256,0.994056,-0.002928,-0.42,0.21,-2.24,32.540001,983.169983,0.2715,-0.06,-0.2445,-0.700000,-0.700000,-0.100000
3296957,-0.081984,0.99308,0.003416,-0.49,0.455,-2.135,32.529999,982.919983,0.2685,-0.066,-0.2475,-0.700000, 0.400000,-0.300000
3296987,-0.073688,0.997472,0.015128,-0.4725,0.105,-2.135,32.59,982.840027,0.264,-0.069,-0.249,-0.500000, 0.000000, 0.200000
3297017,-0.065392,0.994056,0.0244,-0.3325,0.315,-2.17,32.57,982.809998,0.267,-0.06,-0.249,-0.500000,-0.500000, 0.500000
3297047,-0.064416,0.996984,0.02928,-0.1575,-0.1575,-2.3625,32.610001,983.72998,0.2775,-0.0585,-0.258,-0.100000,-0.400000,-0.200000
3297078,-0.068808,0.991128,0.023912,0.0175,-0.07,-2.345,32.669998,983.869995,0.2715,-0.0645,-0.261, 0.500000,-1.400000, 0.200000
3297108,-0.06832,0.998448,0.01952,0.1575,-0.5425,-2.5025,32.619999,983.76001,0.2715,-0.0615,-0.252, 0.300000, 0.900000, 0.500000
3297138,-0.069784,0.99796,0.010248,0.2275,-0.4025,-2.52,32.57,984.090027,0.2685,-0.057,-0.2475, 0.400000,-0.900000,-0.600000
3297168,-0.064416,0.99552,0.002928,0.28,-0.42,-2.555,32.560001,982.98999,0.267,-0.0645,-0.255,-0.800000, 0.600000,-0.100000
3297198,-0.061,0.997472,0.002928,0.21,-0.4375,-2.6075,32.610001,983.090027,0.2685,-0.063,-0.255, 0.000000,-0.800000, 0.400000
3297228,-0.050752,0.997472,0.004392,0.14,-0.42,-2.6775,32.57,982.380005,0.2685,-0.0645,-0.249, 0.100000,-0.400000, 0.600000
3297258,-0.054168,0.994056,0.0122,0.175,-0.77,-2.94,32.57,982.380005,0.2625,-0.0615,-0.252,-0.100000, 0.000000, 0.000000
3297288,-0.059536,0.996496,0.01708,0.2625,-0.63,-3.045,32.529999,983.97998,0.273,-0.063,-0.2505,-0.400000,-0.500000,-0.600000
3297318,-0.069296,0.99308,0.010248,0.385,-0.91,-3.2375,32.57,983.02002,0.276,-0.069,-0.2505, 0.400000, 0.000000,-0.700000
3297349,-0.075152,0.996008,0.000976,0.455,-1.0325,-3.1325,32.459999,982.140015,0.27,-0.0615,-0.2565, 0.400000,-0.100000,-0.100000
3297379,-0.074176,0.99552,-0.003416,0.42,-1.0325,-3.2375,32.560001,982.349976,0.2685,-0.063,-0.2505,-0.500000, 0.400000,-0.200000
3297409,-0.08296,0.99552,-0.011712,0.35,-0.6125,-3.22,32.459999,984.059998,0.2715,-0.0615,-0.252,-0.500000, 0.200000,-0.100000
3297439,-0.082472,0.995032,-0.010736,0.14,-0.91,-3.08,32.459999,982.140015,0.27,-0.0645,-0.2535, 0.000000,-1.000000, 0.300000
3297469,-0.09028,0.995032,-0.006344,0.105,-0.6125,-3.0625,32.610001,982.880005,0.276,-0.0645,-0.252, 0.100000,-0.100000,-0.100000
3297499,-0.099064,0.996496,0.002928,0.035,-0.2975,-2.9575,32.529999,983.130005,0.2805,-0.0675,-0.249,-0.900000, 0.200000,-0.200000
3297529,-0.098576,0.99552,0.005368,0.035,-0.7175,-2.8,32.529999,982.48999,0.2745,-0.063,-0.255, 0.600000, 0.100000,-0.300000
3297559,-0.0976,0.994056,0.005856,0.0875,-0.4025,-2.7475,32.540001,983.590027,0.27,-0.0705,-0.2595,-0.600000,-1.000000,-0.300000
3297589,-0.100528,0.996008,0.002928,0.1925,-0.245,-2.59,32.529999,982.280029,0.2685,-0.069,-0.249,-0.100000, 0.700000, 0.300000
3297619,-0.095648,0.995032,-0.011224,0.0875,-0.315,-2.485,32.48,983.23999,0.2685,-0.069,-0.2415,-0.900000, 0.600000, 0.300000
3297650,-0.09028,0.99552,-0.00732,-0.0175,-0.2625,-2.2575,32.57,983.869995,0.2715,-0.0675,-0.258,-0.100000,-0.600000,-0.200000
3297680,-0.077104,0.99552,-0.008296,-0.14,0.3675,-2.1175,32.57,983.659973,0.276,-0.0615,-0.246,-0.100000, 0.200000,-0.600000
3297710,-0.077104,0.992592,0.000488,-0.35,0.035,-2.0125,32.540001,982.099976,0.2655,-0.0645,-0.237, 0.100000, 0.500000, 0.400000
3297740,-0.091256,0.995032,-0.00976,-0.2625,0.28,-2.2225,32.529999,982.919983,0.2715,-0.06,-0.252,-0.900000,-0.200000, 0.200000
3297770,-0.067832,0.99308,0.01464,-0.28,0.5775,-1.9075,32.490002,983.27002,0.27,-0.063,-0.24, 0.800000, 0.100000,-0.100000
3297800,-0.075152,0.992592,0.006832,-0.1575,-0.1575,-2.03,32.610001,983.299988,0.2685,-0.0675,-0.27,-0.500000, 1.100000,-0.300000
3297830,-0.06344,0.99552,0.010736,-0.1225,0.6125,-1.9775,32.560001,983.840027,0.2715,-0.066,-0.252,-0.400000, 0.100000,-0.400000
3297860,-0.050264,0.994056,0.002928,-0.1225,0.07,-2.135,32.59,983.059998,0.273,-0.066,-0.2655, 0.100000, 0.100000, 0.300000
3297890,-0.069784,1.1102,-0.010736,-0.0525,-0.3675,-2.3975,32.59,983.059998,0.273,-0.0705,-0.2445, 0.400000,-0.500000, 0.400000
3297920,-0.013176,1.002352,0.030744,-0.385,-0.735,-2.1525,32.59,982.419983,0.276,-0.075,-0.255,-0.100000,-0.700000, 0.500000
3297951,-0.147376,4.604768,-0.410408,0.6125,-10.9725,-3.3075,32.540001,982.73999,0.2625,-0.063,-0.249, 3.000000,-1.000000, 1.100000
3297981,2.106696,4.656984,0.563152,-2.0125,-126.455002,0.175,32.540001,982.950012,0.273,-0.066,-0.2535, 2.600000,-0.100000, 0.300000
3298011,1.35664,6.099512,-0.720288,-10.43,-16.555,-33.705002,32.48,981.960022,0.2685,-0.06,-0.258, 2.700000,-2.400000,-0.400000
3298041,-1.848544,6.324968,0.660264,-18.969999,130.112503,-25.3925,32.48,983.669983,0.2715,-0.072,-0.2655, 2.300000, 0.700000, 0.100000
3298071,-2.393152,6.587024,-0.798368,-7.4025,193.514999,-5.0225,32.540001,982.73999,0.2565,-0.075,-0.2325, 1.500000,-0.100000, 0.600000
3298101,-0.326472,6.747088,0.168848,-22.977501,168.524994,22.907499,32.490002,982.849976,0.264,-0.0645,-0.2205, 0.200000,-0.300000, 0.200000
3298131,-1.719224,6.709024,-0.060512,-5.04,101.57,5.2325,32.66,982.77002,0.258,-0.0645,-0.201, 0.800000, 1.400000,-0.100000
3298161,-2.202832,6.550912,-0.318664,6.825,42.192501,17.8675,32.59,983.27002,0.2715,-0.0525,-0.1995, 0.800000, 1.900000,-0.200000
3298191,-1.356152,6.786616,-0.288408,18.865,-97.667503,26.092501,32.59,982.419983,0.2625,-0.054,-0.192,      NaN,      NaN,      NaN
3298221,0.805688,6.912032,-0.731512,44.642502,-169.732498,46.7075,32.540001,981.669983,0.2685,-0.0495,-0.204, 0.700000,-1.700000,-1.300000
3298252,0.299632,6.693896,-0.621712,-3.885,-231.455002,-4.8825,32.540001,981.669983,0.2715,-0.051,-0.219, 0.500000,-1.500000,-1.000000
3298282,0.930128,6.928624,-0.303048,2.9925,-238.472504,-3.395,32.529999,982.919983,0.276,-0.0585,-0.2325, 0.000000,-0.800000,-0.300000
3298312,-0.974536,7.040376,-0.022448,12.1975,-168.927505,8.6625,32.57,981.73999,0.2715,-0.066,-0.2745,-0.100000, 0.200000,-0.200000
3298342,0.343552,7.071608,-0.298168,2.59,-165.725006,3.675,32.540001,981.460022,0.276,-0.066,-0.288, 1.000000,-0.800000,-0.200000
3298372,-0.257664,7.031104,0.018544,2.9225,-154.035004,7.0175,32.59,981.98999,0.276,-0.063,-0.309, 0.700000,-0.200000, 0.400000
3298402,-0.20984,7.095032,-0.078568,-2.6425,-149.1875,2.8,32.450001,981.890015,0.2805,-0.0585,-0.327, 0.800000, 0.500000, 0.400000
3298432,-0.094184,7.125288,-0.12444,-1.26,-141.190002,6.6675,32.490002,981.570007,0.2835,-0.063,-0.3465, 1.000000,-1.000000,-0.600000
3298462,-0.263032,7.167256,-0.023912,-4.9,-132.072495,6.335,32.57,981.73999,0.285,-0.069,-0.351, 0.500000, 0.200000, 0.400000
3298492,-0.2318,7.26144,-0.11956,-7.5425,-120.347504,7.0525,32.459999,980.01001,0.291,-0.06,-0.378, 0.400000, 0.400000, 0.100000
3298522,-0.160064,7.196536,-0.086376,-7.98,-110.862503,8.9775,32.59,981.780029,0.288,-0.0555,-0.399,-0.500000, 0.000000, 0.500000
3298553,-0.199592,7.26632,-0.048312,-9.695,-102.847504,10.115,32.66,980.210022,0.294,-0.051,-0.411, 0.400000,-0.200000,-0.500000
3298583,-0.196664,7.295112,-0.033184,-10.745,-88.952499,10.9025,32.610001,980.320007,0.2985,-0.036,-0.438,-0.600000, 1.100000, 0.000000
3298613,-0.189344,7.349768,-0.105408,-10.6925,-76.947502,11.55,32.48,980.049988,0.2985,-0.0345,-0.456,-0.600000, 0.600000, 0.500000
3298643,-0.225456,7.390272,-0.072712,-11.06,-67.514999,12.355,32.540001,979.330017,0.3015,-0.027,-0.4425, 0.000000,-0.500000, 0.300000
3298673,-0.192272,7.4664,-0.088328,-11.585,-57.084999,13.055,32.450001,979.76001,0.291,-0.0225,-0.4635, 0.000000, 0.400000,-0.400000
3298703,-0.230336,7.460544,-0.096136,-12.3725,-43.4175,13.8075,32.59,979.219971,0.3,-0.018,-0.459,-0.900000,-0.400000,-0.300000
3298733,-0.238144,7.492264,-0.0488,-12.775,-32.130001,14.5775,32.529999,980.150024,0.297,-0.0165,-0.4665, 0.400000,-0.700000,-0.100000
3298763,-0.208376,7.550824,-0.041968,-12.8625,-23.327499,14.9625,32.540001,978.47998,0.3045,-0.0075,-0.4755,-0.200000, 0.500000,-0.700000
3298793,-0.23424,7.625,-0.058072,-13.1075,-15.5925,13.9125,32.57,979.830017,0.303,0.0015,-0.4785, 0.000000,-0.100000, 0.000000
3298823,-0.205448,7.695272,-0.06344,-13.3,-9.59,13.4225,32.560001,978.940002,0.3105,0.003,-0.483, 0.900000,-0.700000,-0.500000
3298854,-0.205936,7.675264,-0.082472,-13.685,-3.7975,12.4425,32.540001,978.27002,0.309,0.0015,-0.489, 0.400000,-0.700000, 0.500000
3298884,-0.24644,7.738704,-0.054168,-13.8075,3.7975,10.3075,32.59,979.219971,0.312,0.0105,-0.5085,-0.100000,-0.400000,-0.600000
3298914,-0.155184,7.769936,-0.051728,-14.035,10.1325,8.7325,32.57,978.119995,0.315,0.0075,-0.5115,-0.500000, 0.400000, 0.400000
3298944,-0.139568,7.81776,-0.054656,-14.5075,18.9,6.44,32.529999,977.799988,0.303,0.006,-0.507, 0.200000,-0.600000,-0.600000
3298974,-0.210328,7.855336,-0.069296,-14.42,27.475,4.5675,32.529999,976.950012,0.3015,0.015,-0.5025, 0.400000, 0.800000, 0.300000
3299004,-0.22204,7.903648,-0.09516,-16.135,35.087502,2.6775,32.509998,977.130005,0.3015,0.012,-0.5115, 0.600000, 0.100000, 0.400000
3299034,-0.20008,7.918288,-0.091256,-16.764999,40.915001,0.8575,32.509998,975.849976,0.303,0.0165,-0.5085, 0.800000, 0.000000, 0.000000
3299064,-0.185928,7.9666,-0.089792,-15.925,48.807499,-1.8025,32.57,976.630005,0.2985,0.0045,-0.51, 0.500000, 0.200000,-0.200000
3299094,-0.199104,7.99588,-0.048312,-15.085,52.57,-3.2025,32.529999,975.669983,0.309,-0.0045,-0.507,-0.800000, 0.400000,-0.800000
3299125,-0.193736,8.001737,-0.069784,-13.79,58.485001,-5.32,32.509998,975.0,0.2955,-0.006,-0.516, 0.000000, 0.000000,-0.100000
3299155,-0.1952,8.09104,-0.049776,-11.0425,64.785004,-7.105,32.560001,975.320007,0.2985,-0.006,-0.5145, 0.400000,-0.300000, 0.400000
3299185,-0.24644,8.044192,-0.050752,-8.5925,71.592499,-7.7525,32.540001,974.640015,0.291,-0.0105,-0.5055, 0.200000,-0.700000, 0.000000
3299215,-0.257176,8.085184,-0.095648,-6.3525,77.07,-8.0675,32.490002,972.840027,0.294,-0.018,-0.5085, 0.400000,-0.700000,-0.100000
3299245,-0.235704,8.103728,-0.108336,-4.9175,81.532501,-8.855,32.59,973.469971,0.3,-0.015,-0.4995,-0.400000,-0.700000, 0.000000
3299275,-0.194224,8.104704,-0.096136,-3.325,86.852501,-8.19,32.560001,973.190002,0.3015,-0.024,-0.4905, 0.300000, 0.200000, 0.400000
3299305,-0.243024,8.201817,-0.12444,-1.9425,98.157501,-8.715,32.560001,971.059998,0.291,-0.0375,-0.4875, 1.100000,-0.100000,-0.400000
3299335,-0.16104,8.188152,-0.134688,-1.1375,103.214996,-5.495,32.57,971.940002,0.288,-0.03,-0.4665, 0.600000, 0.500000, 0.700000
3299365,-0.304024,8.171072,-0.113704,-0.455,106.172501,-3.29,32.540001,971.450012,0.291,-0.039,-0.4575, 0.200000, 0.700000, 0.500000
3299395,-0.276696,8.16668,-0.107848,0.77,109.584999,0.28,32.560001,970.200012,0.2925,-0.045,-0.438, 0.600000, 0.400000,-0.500000
3299426,-0.141032,8.214993,-0.242536,0.21,110.197502,4.6375,32.619999,969.909973,0.294,-0.0465,-0.429,-0.500000,-1.100000,-0.900000
3299456,-0.230824,8.206697,-0.134688,-1.785,110.162498,6.8425,32.619999,968.640015,0.288,-0.048,-0.4185, 0.100000,-0.900000,-0.400000
3299486,-0.217648,8.170096,-0.103456,-3.955,107.852501,8.75,32.59,968.780029,0.285,-0.0495,-0.405, 0.500000,-0.200000,-0.100000
3299516,-0.218136,8.225241,-0.257664,-6.7375,103.897499,10.465,32.540001,968.890015,0.2835,-0.057,-0.399, 0.800000,-0.600000, 0.100000
3299546,-0.162016,8.195472,-0.19276,-8.5575,91.5075,9.835,32.540001,968.039978,0.2745,-0.0495,-0.387,-0.100000,-0.300000, 0.000000
3299576,-0.189344,8.25208,-0.118096,-10.9025,80.254997,9.3975,32.57,967.469971,0.288,-0.0555,-0.375,-0.500000,-0.300000, 0.300000
3299606,-0.137128,8.274529,-0.098088,-12.005,61.5825,8.4175,32.529999,966.51001,0.279,-0.0435,-0.3735, 0.500000, 0.100000, 0.200000
3299636,-0.073688,8.250616,-0.187392,-15.575,38.709999,5.6175,32.57,966.400024,0.285,-0.057,-0.363,-0.300000, 0.700000,-0.500000
3299666,-0.214232,8.256472,-0.122488,-15.225,14.6475,3.15,32.669998,966.390015,0.2865,-0.048,-0.366,-0.200000,-0.600000, 0.500000
3299696,-0.408944,8.215968,-0.114192,-15.54,-8.05,0.14,32.57,964.700012,0.2895,-0.051,-0.375, 0.100000,-0.700000,-0.400000
3299727,-0.197152,8.208649,-0.106384,-14.6125,-31.237499,-1.6625,32.48,964.070007,0.291,-0.054,-0.3765, 0.700000, 0.900000, 0.100000
3299757,-0.090768,8.167656,-0.08052,-10.85,-41.002499,-3.71,32.57,963.419983,0.2925,-0.0435,-0.3885,-0.300000,-0.900000, 0.500000
3299787,-0.223504,8.11056,-0.130784,-8.295,-36.119999,-5.775,32.540001,961.859985,0.297,-0.0555,-0.3975,-0.500000, 0.400000,-0.600000
3299817,-0.299144,8.11544,-0.255712,-7.14,-22.067499,-7.1925,32.59,961.539978,0.291,-0.048,-0.396, 0.000000,-1.100000,-0.200000
3299847,0.09516,8.09348,-0.047824,-5.3025,2.345,-8.7675,32.509998,961.789978,0.2955,-0.045,-0.399,-0.500000,-0.800000, 0.000000
3299877,0.078568,8.072008,-0.015128,-4.375,24.360001,-8.68,32.59,958.97998,0.294,-0.0585,-0.3975, 0.400000, 0.000000, 0.400000
3299907,-0.467016,8.063224,-0.03904,-2.8175,40.985001,-9.52,32.529999,960.119995,0.294,-0.054,-0.3915,-0.500000, 0.300000, 0.400000
3299937,-0.372832,8.051512,-0.24644,1.3125,56.875,-7.0875,32.48,959.599976,0.291,-0.045,-0.3885, 0.200000,-1.100000, 0.700000
3299967,-0.16836,7.980752,-0.15128,4.9875,64.959999,-2.59,32.540001,957.390015,0.2895,-0.054,-0.3795, 0.500000, 2.300000, 0.100000
3299997,-0.271328,7.961232,-0.055144,5.3725,79.625,-2.8875,32.57,956.820007,0.2925,-0.051,-0.3705, 0.100000, 0.300000,-0.200000
3300028,0.02928,7.892424,-0.018056,6.1425,100.817497,5.985,32.48,956.830017,0.2895,-0.057,-0.3675, 0.800000,-1.000000, 0.600000
3300058,-0.387472,7.907552,-0.307928,-1.4875,109.339996,7.245,32.48,955.97998,0.2895,-0.0585,-0.3525,-0.700000,-0.400000, 0.000000
3300088,-0.062464,7.869,-0.4514,-6.615,124.214996,10.955,32.490002,954.52002,0.2865,-0.0555,-0.3375, 0.200000,-0.300000,-1.100000
3300118,-0.474336,7.81532,-0.027328,-12.3375,127.925003,16.362499,32.560001,954.22998,0.282,-0.06,-0.3225, 0.500000,-0.800000,-0.400000
3300148,-0.254248,7.801168,-0.045872,-13.72,153.824997,12.9325,32.529999,953.090027,0.282,-0.051,-0.3045,      NaN,      NaN,      NaN
3300178,-0.041968,7.808,-0.459696,-16.2225,171.762497,12.285,32.57,953.409973,0.2925,-0.0465,-0.2925, 0.400000,-0.100000, 0.800000
3300208,-0.102968,7.60792,0.090768,-21.3675,201.302505,12.18,32.59,951.950012,0.294,-0.045,-0.288, 0.200000,-0.700000, 0.800000
3300238,-0.637816,7.514224,0.013176,-18.620001,219.292496,3.08,32.48,950.219971,0.294,-0.0375,-0.264, 0.000000, 0.500000,-0.500000
3300268,0.12932,7.56156,-0.17324,-16.030001,242.270004,8.47,32.57,950.849976,0.282,-0.039,-0.2565, 0.300000,-0.500000, 0.800000
3300298,-0.279624,7.452248,-0.144936,-7.98,242.952499,-0.3675,32.509998,949.01001,0.2835,-0.024,-0.2325,-0.400000, 1.300000,-0.400000
3300329,-0.14152,7.42248,-0.402112,-6.615,248.657501,-1.5925,32.509998,948.799988,0.2865,-0.018,-0.2235, 0.100000,-0.300000, 0.000000
3300359,-0.434808,7.282912,-0.168848,-7.4725,260.924988,-0.385,32.459999,947.0,0.2865,-0.012,-0.204, 0.500000, 0.000000,-0.400000
3300389,-0.33184,7.256072,-0.11956,-5.7925,266.647491,-0.7175,32.490002,947.48999,0.2805,0.0045,-0.183, 0.000000,-0.500000,-0.100000
3300419,-0.915488,7.309752,-0.449448,0.385,230.229996,-0.1575,32.529999,945.849976,0.285,0.0195,-0.1815,-0.100000, 0.400000, 0.800000
3300449,-1.084824,7.238504,-0.196176,1.6625,246.102493,-0.315,32.48,944.900024,0.2895,0.036,-0.1725, 0.200000, 1.200000,-0.300000
3300479,0.250344,7.07112,-0.043432,2.065,186.357498,3.0975,32.560001,944.429993,0.2865,0.0525,-0.1695,-0.200000, 1.300000, 0.000000
3300509,-0.520208,6.945216,-0.209352,-2.1175,209.807495,5.635,32.459999,941.880005,0.2805,0.06,-0.1635, 0.300000,-0.400000, 0.600000
3300539,-0.257664,6.84908,-0.038552,-4.8475,219.922501,6.09,32.490002,942.159973,0.276,0.0705,-0.1695,-0.800000, 0.700000, 0.100000
3300569,0.49776,6.52212,0.593896,-9.3275,202.037506,8.1025,32.560001,942.080017,0.279,0.093,-0.18,-1.100000,-1.600000, 1.100000
3300599,-0.998448,6.520656,-0.392352,-5.8275,182.927505,-0.7,32.48,939.570007,0.279,0.1005,-0.1755,-0.600000, 1.000000, 0.700000
3300630,-0.195688,6.425496,-0.39528,-3.675,138.757507,-3.9025,32.560001,939.309998,0.279,0.111,-0.1785,-0.100000, 0.900000,-0.400000
3300660,0.084912,6.218096,0.21228,-9.555,93.1175,-2.3625,32.48,937.659973,0.2835,0.1245,-0.183,-0.100000,-1.400000, 0.800000
3300690,-0.931104,6.15124,-0.491904,-5.075,59.0625,-14.1225,32.490002,937.900024,0.279,0.126,-0.1875,-0.300000, 0.900000, 0.400000
3300720,-0.215696,6.005816,-0.191784,-6.1425,26.6175,-15.0325,32.529999,937.119995,0.288,0.126,-0.1935,-0.600000, 0.400000,-0.100000
3300750,-0.529968,5.974096,-0.312808,0.595,-7.0175,-17.8325,32.610001,936.219971,0.2865,0.123,-0.204,-0.600000,-1.200000, 0.500000
3300780,-0.609512,5.654456,-0.500688,2.9225,-101.272499,-16.852501,32.509998,934.530029,0.288,0.1215,-0.1935,-0.100000,-0.500000,-0.500000
3300810,0.222528,5.525624,0.006832,0.105,-160.404999,-13.3875,32.57,933.590027,0.2835,0.12,-0.195, 0.300000,-1.700000, 0.000000
3300840,-0.503616,5.36556,-0.24888,5.6175,-212.485001,-8.54,32.43,932.22998,0.285,0.1005,-0.1905,-0.100000, 1.600000,-0.800000
3300870,-0.018544,5.210376,-0.300608,10.3425,-264.19751,4.165,32.490002,932.150024,0.2805,0.096,-0.1845,-0.500000, 0.900000, 0.500000
3300901,-0.632936,5.032256,-1.030168,32.637501,-468.545013,1.4,32.529999,930.940002,0.279,0.0765,-0.1695,-1.000000,-0.600000,-0.500000
3300931,-0.480192,4.694072,0.059536,27.002501,-570.657471,-6.7375,32.540001,930.969971,0.285,0.0315,-0.174,-0.500000,-0.300000, 1.500000
3300961,0.178608,4.883904,-1.015528,25.305,-570.849976,-1.5575,32.400002,931.099976,0.282,0.006,-0.183,-0.800000,-1.000000, 0.100000
3300991,-0.134688,4.67016,-0.699304,16.1175,-573.369995,-20.247499,32.529999,928.380005,0.282,-0.0315,-0.2385, 0.400000,-2.600000,-0.700000
3301021,-0.13176,4.50912,-1.034072,0.84,-531.195007,-14.91,32.59,928.299988,0.2865,-0.0375,-0.2775,-0.400000, 0.900000,-1.100000
3301051,0.470432,4.266584,0.186416,-7.28,-572.79248,-20.842501,32.400002,926.210022,0.297,-0.045,-0.363, 0.200000,-0.400000,-0.100000
3301081,-0.728584,4.429088,-1.098488,10.745,-573.369995,-10.9025,32.529999,925.830017,0.3015,-0.036,-0.411,-0.300000,-0.800000, 0.000000
3301111,-0.401624,4.276344,-1.197064,9.9575,-573.369995,-7.3325,32.41,925.599976,0.3045,0.0015,-0.498,-0.600000,-2.700000, 1.100000
3301141,-0.310856,4.109936,-1.17364,8.3125,-568.032471,-23.135,32.57,924.640015,0.3075,0.0225,-0.5295,-0.900000, 2.000000, 0.000000
3301171,-0.19764,4.045032,-1.131672,-5.11,-573.037476,-31.1675,32.529999,923.909973,0.306,0.0915,-0.546,-0.500000,-4.200000, 1.700000
3301202,-0.261568,3.99916,-0.826184,-7.8225,-572.932495,-42.122501,32.540001,924.789978,0.309,0.126,-0.5445,-0.600000,-3.300000, 1.100000
3301232,1.416664,3.875208,-0.499224,-7.805,-572.30249,-52.220001,32.57,923.580017,0.2955,0.1695,-0.5115,-1.000000, 2.300000,-0.900000
3301262,1.273192,3.637064,-0.773968,-14.1925,-573.369995,-47.075001,32.560001,922.27002,0.3,0.1785,-0.4875,-1.300000,-4.100000, 1.100000
3301292,0.417728,3.6234,-0.550464,-12.6175,-573.369995,-49.647499,32.529999,920.5,0.2955,0.2025,-0.408,-0.500000,-3.000000, 0.900000
3301322,0.83936,3.466752,0.410896,20.475,-570.255005,-45.5,32.490002,918.72998,0.294,0.2055,-0.36, 0.600000, 3.700000,-1.600000
3301352,1.116544,3.620472,-0.459696,34.352501,-573.22998,-48.5275,32.59,918.919983,0.2925,0.168,-0.2565,-0.500000,-2.400000, 0.200000
3301382,2.19356,3.513112,-1.00772,43.592499,-566.5625,-61.915001,32.57,918.469971,0.2775,0.1515,-0.2145, 0.100000,-6.200000,-0.200000
3301412,1.26636,2.656184,-0.899384,-0.665,-564.04248,-83.422501,32.560001,917.799988,0.291,0.069,-0.177,-1.100000,-8.000000, 3.900000
3301442,-4.260728,2.295064,-2.432192,3.2025,-424.182495,-97.894997,32.560001,914.809998,0.2835,0.036,-0.1815,-2.400000,-17.200001, 7.000000
3301472,-1.95688,2.868952,-1.60308,-9.03,-497.122498,-55.772499,32.48,913.369995,0.288,-0.0165,-0.2355,-2.200000, 2.100000,-1.800000
3301503,0.899384,2.524424,-0.722728,1.82,-544.477478,-31.762501,32.509998,911.950012,0.2955,-0.021,-0.273,-0.500000,-3.400000, 0.100000
3301533,2.444392,2.6596,-0.468968,26.827499,-543.47998,-4.3925,32.540001,913.289978,0.3,-0.0435,-0.3615,-1.300000, 6.300000,-1.200000
3301563,-3.25008,3.125152,-2.23016,62.334999,-542.587524,-32.025002,32.560001,911.619995,0.306,-0.0375,-0.402,-0.200000, 2.800000, 3.400000
3301593,3.088064,2.775256,-1.131672,79.152496,-552.527527,-36.049999,32.490002,913.190002,0.3075,-0.0165,-0.4695, 0.100000,-3.000000,-1.300000
3301623,-0.399672,1.642608,-2.260416,39.672501,-552.492493,-72.205002,32.560001,911.400024,0.3075,0.006,-0.4965,-1.300000, 0.400000, 1.000000
3301653,1.49084,1.11264,-0.81252,-31.955,-573.369995,-80.43,32.450001,911.390015,0.3045,0.057,-0.546,-0.100000,-2.700000, 0.500000
3301683,1.653344,1.696776,-1.156072,-23.66,-573.369995,-68.004997,32.57,909.309998,0.303,0.0885,-0.5805, 0.100000, 6.000000, 1.200000
3301713,-0.207888,1.082872,-0.953552,-7.84,-573.369995,-6.58,32.509998,908.109985,0.2985,0.1545,-0.555, 1.800000,-0.900000, 0.700000
3301743,-1.7202,3.026088,-2.236504,39.48,-552.195007,-30.695,32.509998,907.26001,0.2985,0.1815,-0.537, 1.100000, 4.300000,-2.700000
3301773,-2.454152,0.74908,-0.167872,25.252501,-530.897522,-44.240002,32.57,907.599976,0.2865,0.2175,-0.432,-4.500000,-2.700000, 1.400000
3301804,3.3306,0.725168,-0.459208,22.995001,-507.482513,-44.467499,32.560001,907.570007,0.288,0.21,-0.3795, 0.700000, 4.900000,-0.300000
3301834,3.607784,0.586088,-0.223016,-6.545,-518.10498,-60.357498,32.450001,906.919983,0.288,0.1995,-0.297,-0.300000,-5.200000,-0.400000
3301864,-0.562176,1.331752,-2.128656,-22.959999,-532.297485,-77.787498,32.450001,906.48999,0.291,0.1755,-0.267, 1.400000, 4.200000, 0.300000
3301894,1.751432,-0.431392,1.852448,-44.607498,-558.950012,-67.0075,32.540001,902.640015,0.294,0.126,-0.237, 0.000000, 1.300000,-2.900000
3301924,0.899872,1.499136,-2.238944,-24.535,-485.1875,-28.735001,32.540001,902.419983,0.2955,0.0975,-0.2265,-3.100000,-0.700000, 2.400000
3301954,0.376248,1.247816,-1.147776,22.82,-354.899994,-16.362499,32.450001,901.809998,0.297,0.0645,-0.2145, 1.400000,-0.100000,-3.200000
3301984,-1.208776,0.39528,-0.868152,17.85,-326.269989,-33.215,32.490002,901.049988,0.294,0.0495,-0.2115,-4.200000,-2.600000, 3.000000
3302014,2.667896,-0.483608,0.665632,43.172501,-401.712494,-27.247499,32.59,901.669983,0.294,0.0285,-0.2175, 3.100000, 6.500000,-3.100000
3302044,-0.328424,-0.758352,0.121024,53.497501,-403.42749,-49.279999,32.490002,899.130005,0.294,0.018,-0.2235,-3.100000, 3.600000, 0.800000
3302074,0.62464,0.435784,-1.200968,48.195,-419.737488,-37.887501,32.509998,900.869995,0.288,-0.0255,-0.2355,-2.200000, 1.000000,-2.600000
3302105,-0.66124,0.337696,-2.309216,52.202499,-500.359985,-70.769997,32.509998,900.02002,0.2895,-0.0345,-0.2505,-0.600000,-0.900000, 2.400000
3302135,1.035048,0.488,-0.95404,24.272499,-562.309998,-43.959999,32.459999,897.369995,0.2775,-0.0645,-0.3345,-0.800000, 0.200000, 0.600000
3302165,0.53192,-0.07564,-0.403088,-15.68,-567.227478,-2.6775,32.560001,897.559998,0.2895,-0.06,-0.4425, 0.100000,-0.500000,-0.100000
3302195,4.407616,0.697352,0.487512,39.900002,-553.875,14.8575,32.48,896.969971,0.297,-0.0285,-0.4665, 0.200000, 2.000000,-1.500000
3302225,-3.274968,1.008208,-1.159,41.720001,-544.179993,-4.9525,32.48,895.059998,0.303,0.0225,-0.5355, 0.800000, 0.000000, 2.800000
3302255,-1.903688,-0.63196,-0.751032,42.665001,-502.932495,-26.004999,32.610001,898.289978,0.303,0.0555,-0.552, 2.300000,-2.500000, 0.200000
3302285,1.91296,-0.079544,-1.009184,47.285,-498.154999,-44.240002,32.529999,895.789978,0.3105,0.0975,-0.543,-0.500000,-2.900000, 1.300000
3302315,1.757776,-0.004392,-0.328424,9.835,-476.612488,-41.842499,32.529999,896.429993,0.306,0.1065,-0.5415, 2.800000,-1.500000, 0.400000
3302345,-3.38672,0.16836,-1.062376,-24.8675,-475.107513,-47.845001,32.560001,895.640015,0.3105,0.1395,-0.5325, 1.500000, 2.000000,-0.800000
3302376,1.065792,0.437736,-1.064328,21.8225,-491.015015,-21.0175,32.540001,893.690002,0.3045,0.159,-0.516,-0.800000,-0.900000,-1.000000
3302406,-0.4758,-0.06588,-0.792024,-26.705,-392.612488,-10.9375,32.59,893.359985,0.306,0.1725,-0.489, 1.100000, 1.900000, 0.200000
3302436,4.270976,-0.167872,0.74176,17.5,-375.007507,34.615002,32.57,892.049988,0.3015,0.1875,-0.4785, 1.900000,-2.900000, 0.000000
3302466,-2.710352,0.861808,-1.301496,37.607498,-221.095001,-15.6275,32.490002,893.169983,0.3,0.2055,-0.4275,-3.900000,-1.400000, 1.800000
3302496,-0.87352,-0.110288,-0.55144,32.672501,-113.014999,-23.030001,32.619999,892.570007,0.2805,0.1995,-0.4155,-1.300000,-3.500000, 0.700000
3302526,-1.800232,0.22204,-0.72712,38.535,149.869995,-36.330002,32.48,892.070007,0.3,0.195,-0.405,-1.600000, 4.700000,-1.100000
3302556,-0.469944,-0.574864,-0.86132,57.224998,196.524994,-49.192501,32.540001,890.48999,0.297,0.1935,-0.402, 0.300000,-0.100000,-1.000000
3302586,0.042456,0.379664,-1.500112,65.677498,147.402496,-79.730003,32.529999,890.25,0.306,0.1755,-0.405,-1.200000,-4.100000, 0.800000
3302616,-2.02276,-0.287432,-0.484584,28.192499,199.587494,-48.842499,32.560001,888.820007,0.3045,0.1755,-0.4155, 1.900000,-4.800000, 1.800000
3302646,3.138816,-1.012112,0.366,-22.627501,228.462494,-23.047501,32.48,888.669983,0.321,0.159,-0.429, 0.800000, 0.800000,-0.100000
3302677,0.802272,-0.996008,-0.4026,-15.7325,359.362488,-45.080002,32.490002,887.210022,0.312,0.147,-0.438, 1.400000, 4.700000,-3.700000
3302707,-0.613416,0.808616,-1.799256,-60.7425,487.707489,-51.169998,32.57,886.51001,0.318,0.129,-0.462, 0.100000, 2.500000, 0.500000
3302737,2.548336,0.503616,0.201056,-54.862499,384.5625,-51.2575,32.509998,886.809998,0.3105,0.1095,-0.4875, 1.000000,-2.700000, 1.700000
3302767,2.395104,0.218624,1.497184,-81.934998,351.049988,-44.029999,32.509998,885.109985,0.327,0.0795,-0.501,-0.300000,-0.800000, 1.800000
3302797,4.096272,-0.02928,1.592344,-76.824997,236.529999,-29.924999,32.610001,884.01001,0.3135,0.0495,-0.504,-0.100000,-1.800000, 0.400000
3302827,1.902224,-0.004392,0.87596,-85.977501,276.640015,-22.575001,32.529999,882.580017,0.309,0.0255,-0.5145,-1.300000, 3.600000,-2.400000
3302857,-2.4278,0.232776,-1.753384,-68.652496,358.434998,-12.4775,32.490002,882.52002,0.294,0.0135,-0.5205, 1.400000, 3.200000,-1.600000
3302887,-2.006656,0.046848,-1.689944,-64.452499,399.48999,10.0975,32.57,882.669983,0.297,-0.009,-0.5235, 0.000000, 4.000000,-3.400000
3302917,-1.641632,-0.440664,-0.99796,-63.314999,424.672485,24.5525,32.509998,883.190002,0.294,-0.015,-0.4905, 1.800000,-1.000000,-0.300000
3302947,-1.406416,-0.635376,-1.079944,-62.299999,366.975006,33.669998,32.560001,882.0,0.2925,-0.0345,-0.462,-1.200000,-3.600000, 1.400000
3302978,1.683112,-1.547936,0.468968,-73.220001,296.975006,63.087502,32.509998,882.119995,0.294,-0.045,-0.441,-0.500000,-1.900000, 0.600000
3303008,2.67424,-1.65432,0.440664,-25.3575,224.384995,60.357498,32.529999,880.880005,0.297,-0.048,-0.417,-1.800000,-3.800000,-1.200000
3303038,2.29848,-1.494744,0.126392,2.485,132.860001,37.66,32.43,882.820007,0.2895,-0.039,-0.4125, 0.000000, 0.400000,-1.400000
3303068,-0.160552,-1.727032,0.033184,14.98,-0.35,30.5375,32.540001,883.25,0.3045,-0.048,-0.3885,-0.400000,-5.300000, 1.500000
3303098,0.854488,-2.328736,0.090768,36.452499,14.42,19.355,32.529999,882.789978,0.309,-0.0405,-0.378,-1.100000, 0.000000, 0.400000
3303128,1.80072,-2.680584,0.191784,36.067501,-60.025002,-17.780001,32.560001,883.070007,0.2955,-0.033,-0.3735,-1.500000, 2.600000,-1.400000
3303158,1.51036,-2.975824,0.238632,18.48,-35.857498,-51.712502,32.540001,881.969971,0.2985,-0.042,-0.369,-0.200000, 0.400000, 1.500000
3303188,2.22284,-3.922056,1.07848,14.4375,-146.895004,-47.022499,32.450001,880.719971,0.288,-0.054,-0.3675,-0.600000, 2.800000,-2.100000
3303218,-1.39324,-2.818688,-1.365424,16.379999,-187.985001,-64.767502,32.57,880.969971,0.294,-0.054,-0.378, 0.200000, 3.800000,-2.700000
3303248,-1.0736,-3.205672,-1.13216,11.165,-279.475006,-64.925003,32.59,877.799988,0.285,-0.0585,-0.417, 0.200000, 2.300000,-2.400000
3303279,-1.456192,-2.977776,-1.621136,22.610001,-300.002502,0.8925,32.59,876.530029,0.2835,-0.0615,-0.4455, 0.300000, 1.000000, 0.700000
3303309,-0.466528,-3.42576,0.804712,-1.9075,-342.422485,14.6125,32.619999,876.159973,0.288,-0.0285,-0.4875,-0.700000,-1.500000, 1.600000
3303339,1.99592,-3.687328,0.679784,30.1525,-199.622498,22.540001,32.529999,875.97998,0.2985,-0.0195,-0.5175, 0.700000,-0.800000, 1.100000
3303369,0.455792,-4.156784,0.677344,44.939999,188.615005,39.514999,32.560001,876.25,0.3045,-0.0135,-0.5145, 0.900000,-1.800000, 3.300000
3303399,1.263432,-4.615992,0.391864,59.009998,367.01001,40.215,32.59,877.590027,0.306,-0.027,-0.4545, 0.400000, 0.300000,-0.300000
3303429,2.172576,-3.612664,0.07076,28.42,560.070007,74.129997,32.540001,878.559998,0.3105,-0.03,-0.4035,-1.500000, 0.700000, 0.000000
3303459,0.794952,-4.076264,-0.049776,-12.005,571.969971,-6.755,32.59,876.950012,0.3045,-0.0435,-0.306,-0.400000,-1.500000, 0.700000
3303489,1.303448,-3.895216,-0.918904,0.9625,573.369995,-31.4475,32.57,878.409973,0.294,-0.0375,-0.2535, 1.300000, 0.000000,-1.600000
3303519,-0.119072,-4.103592,-0.6832,-32.305,573.369995,-67.217499,32.610001,878.26001,0.2835,0.0,-0.1755,-0.800000, 1.200000,-1.500000
3303549,0.963312,-4.137752,-0.277184,45.377499,573.369995,-69.720001,32.529999,876.400024,0.2775,0.027,-0.1335, 1.700000, 0.700000, 1.700000
3303580,0.839848,-4.468128,-0.649528,83.597504,573.369995,-68.862503,32.540001,877.710022,0.2715,0.0915,-0.117,-1.600000, 1.900000,-0.600000
3303610,-0.445544,-4.06504,-2.26432,61.7925,573.369995,-55.877499,32.540001,875.789978,0.2595,0.117,-0.1305, 0.300000,-1.800000, 0.700000
3303640,2.922632,-3.655608,-0.291336,43.68,573.369995,-44.2225,32.560001,875.609985,0.246,0.1935,-0.207,-2.700000, 2.300000,-0.100000
3303670,2.181848,-3.7454,-0.253272,31.5525,572.337524,-61.7225,32.529999,875.340027,0.2655,0.2055,-0.2715, 0.500000,-2.400000, 1.900000
3303700,-0.47336,-4.58476,-0.565592,18.9,573.369995,-83.160004,32.529999,874.909973,0.2805,0.213,-0.3945,-0.800000, 2.100000,-0.500000
3303730,0.795928,-3.822016,-0.871568,53.200001,573.369995,-92.68,32.540001,873.880005,0.2985,0.195,-0.4455,-0.600000,-3.700000,-0.600000
3303760,2.094496,-3.892776,0.291336,67.392502,573.369995,-98.945,32.529999,875.119995,0.3255,0.129,-0.4785,-1.800000, 3.200000,-0.600000
3303790,3.395016,-3.49408,0.653432,77.175003,552.877502,-102.514999,32.540001,872.390015,0.324,0.093,-0.4785, 0.100000,-5.700000, 1.400000
3303820,2.362896,-4.447144,0.279136,59.447498,568.890015,-76.422501,32.57,872.869995,0.318,0.0345,-0.4215,-0.800000,-0.200000, 1.000000
3303850,0.774944,-4.576464,-0.779824,47.810001,573.369995,-101.535004,32.560001,872.200012,0.324,0.0,-0.3765,-1.700000, 4.000000,-4.300000
3303881,0.17568,-3.773704,-1.71776,55.982498,573.369995,-107.625,32.59,873.330017,0.2985,-0.0285,-0.2445, 1.100000,-0.300000, 1.600000
3303911,-1.928088,-3.921568,-1.380064,62.195,573.369995,-110.879997,32.57,871.809998,0.291,-0.0135,-0.1845, 0.900000, 4.500000,-0.600000
3303941,0.06832,-3.493104,-1.367864,81.497498,573.369995,-110.915001,32.540001,872.169983,0.264,0.0285,-0.126, 0.000000, 2.600000,-0.400000
3303971,1.92028,-3.3428,-0.540216,89.599998,563.132507,-98.927498,32.509998,870.830017,0.255,0.0555,-0.0975, 0.800000,-1.500000,-0.200000
3304001,1.599664,-3.325232,-0.918904,81.235001,564.445007,-103.932503,32.560001,870.710022,0.2415,0.093,-0.0765, 0.000000,-1.300000, 1.500000
3304031,0.09028,-3.439912,0.40504,53.549999,572.284973,-120.347504,32.490002,869.950012,0.2325,0.12,-0.078,-0.100000, 1.100000, 1.400000
3304061,0.990152,-3.030968,-0.166408,43.82,573.369995,-109.252502,32.509998,869.77002,0.2325,0.18,-0.1305, 0.600000, 0.000000, 0.400000
3304091,0.563152,-2.69376,-1.194136,46.672501,573.369995,-115.745003,32.57,867.76001,0.2445,0.198,-0.165,-0.200000,-0.100000, 0.800000
3304121,0.020496,-2.873832,-0.780312,39.357498,573.369995,-118.597504,32.509998,868.48999,0.264,0.219,-0.2595,-0.100000, 0.000000, 0.300000
3304152,0.193248,-2.790872,-0.969168,38.0275,573.369995,-123.147499,32.509998,868.919983,0.276,0.2235,-0.3045, 0.700000, 1.200000,-0.700000
3304182,-0.064416,-3.038288,-1.011624,41.720001,573.369995,-138.757507,32.540001,869.619995,0.297,0.2025,-0.4005,-0.100000,-1.100000,-0.300000
3304212,0.449936,-3.022184,-0.7076,42.805,573.369995,-135.607498,32.57,868.190002,0.3045,0.168,-0.4365,-0.500000, 0.200000, 0.100000
3304242,0.501664,-2.974848,-0.794464,47.32,573.369995,-133.647507,32.57,868.830017,0.3255,0.1035,-0.459, 0.000000, 0.700000, 0.100000
3304272,0.95648,-2.819176,-0.824232,53.724998,573.369995,-124.582497,32.560001,868.369995,0.333,0.069,-0.447,-0.400000, 0.600000, 0.300000
3304302,0.061976,-2.740608,-1.0248,51.625,573.369995,-114.1875,32.529999,868.309998,0.3165,0.0105,-0.3615, 0.300000, 0.500000, 0.800000
3304332,0.382592,-2.631784,-0.732488,55.947498,573.369995,-106.574997,32.509998,866.789978,0.3075,-0.0165,-0.333,-0.100000, 0.600000,-0.900000
3304362,-0.070272,-2.683512,-0.470432,55.352501,573.369995,-109.724998,32.560001,866.450012,0.2925,-0.03,-0.2355,-0.100000,-0.700000, 0.600000
3304392,-0.104432,-2.687904,-0.408944,54.337502,572.337524,-115.535004,32.57,866.690002,0.285,-0.0165,-0.171, 0.600000, 1.000000, 0.400000
3304422,0.494344,-2.62056,-0.576328,54.389999,573.02002,-120.697502,32.57,867.330017,0.2685,0.003,-0.1185,-0.400000,-1.600000,-0.200000
3304453,-0.041968,-2.63032,-0.525088,55.072498,572.284973,-131.565002,32.509998,865.719971,0.246,0.0225,-0.0945, 0.100000,-1.300000,-0.200000
3304483,0.35868,-2.639104,-0.369416,51.099998,573.369995,-133.752502,32.57,864.559998,0.2325,0.0525,-0.0525, 0.300000,-0.500000, 0.800000
3304513,0.289384,-2.599088,-0.340136,50.014999,573.369995,-127.977501,32.490002,865.47998,0.225,0.0885,-0.057, 0.000000, 0.200000, 0.200000
3304543,0.13908,-2.498072,-0.751032,47.512501,573.369995,-121.904999,32.490002,864.200012,0.2235,0.141,-0.0885,-0.300000,-0.300000,-0.100000
3304573,0.250832,-2.347768,-0.721752,45.8675,573.369995,-115.552498,32.540001,865.140015,0.2325,0.174,-0.1125, 0.200000, 0.100000,-0.300000
3304603,-0.057584,-2.515152,-0.543632,40.7925,573.369995,-109.514999,32.459999,863.5,0.24,0.2175,-0.207, 0.300000, 0.400000,-0.300000
3304633,0.501664,-2.437072,-0.576816,46.322498,573.369995,-107.572502,32.560001,864.109985,0.2625,0.234,-0.333,-0.800000, 0.200000,-0.100000
3304663,0.486536,-2.429264,-0.338184,54.915001,573.369995,-106.644997,32.509998,865.299988,0.2865,0.2265,-0.375, 0.000000, 0.000000, 0.700000
3304693,0.301096,-2.430728,-0.393816,64.907501,573.369995,-110.985001,32.59,864.590027,0.3045,0.1905,-0.4455,-0.100000,-0.300000, 0.500000
3304723,0.551928,-2.460984,-0.32452,69.790001,571.900024,-109.182503,32.459999,865.419983,0.3105,0.162,-0.4545, 1.000000,-0.800000, 0.400000
3304754,0.167384,-2.417064,-0.371368,72.642502,556.16748,-111.002502,32.490002,863.98999,0.327,0.105,-0.462, 0.200000,-0.500000, 0.500000
3304784,0.465552,-2.31312,-0.113704,68.512497,531.07251,-109.7425,32.540001,862.590027,0.3345,0.081,-0.441, 0.800000, 0.700000, 0.000000
3304814,-0.257176,-2.367776,-0.039528,56.122501,541.432495,-113.470001,32.560001,862.400024,0.321,0.03,-0.39, 0.200000,-0.700000,-0.200000
3304844,-0.443104,-2.224792,-0.162992,51.9575,510.07251,-112.752502,32.459999,861.799988,0.3285,0.018,-0.369, 0.200000, 0.600000,-0.900000
3304874,0.176168,-2.13988,-0.024888,44.1875,531.352478,-105.559998,32.509998,860.820007,0.312,-0.021,-0.2925, 0.300000, 0.100000,-0.400000
3304904,-0.05856,-2.042768,-0.183976,36.68,570.184998,-109.235001,32.540001,861.309998,0.297,-0.036,-0.2565, 0.200000, 1.400000,-0.500000
3304934,0.233752,-2.006656,-0.310368,35.122501,573.369995,-101.237503,32.43,861.52002,0.276,-0.027,-0.186, 0.600000,-0.900000,-0.700000
3304964,-0.010736,-1.96664,-0.447496,39.165001,570.88501,-111.195,32.560001,862.190002,0.27,-0.018,-0.147,-0.300000,-0.200000,-0.500000
3304994,-0.199104,-2.134512,-0.263032,40.075001,571.182495,-116.602501,32.529999,862.130005,0.249,0.015,-0.0885,-0.100000, 1.000000, 0.200000
3305024,0.306952,-2.21796,-0.003416,44.2925,565.30249,-120.364998,32.529999,862.130005,0.2385,0.0375,-0.0705,-0.100000, 0.400000,-0.600000
3305055,-0.063928,-2.112064,-0.603168,54.302502,573.369995,-117.110001,32.490002,861.429993,0.2325,0.0795,-0.06,-0.900000, 0.300000,-0.400000
3305085,-0.232288,-2.118896,-0.360144,58.467499,573.369995,-117.285004,32.450001,861.77002,0.219,0.111,-0.066, 0.500000,-0.200000, 0.300000
3305115,0.260592,-2.004704,-0.595848,62.264999,573.195007,-106.942497,32.490002,861.0,0.2265,0.159,-0.102,-0.600000,-0.300000, 0.100000
3305145,-0.342088,-1.999824,-0.472872,59.587502,565.79248,-106.802498,32.490002,860.789978,0.228,0.186,-0.123,-0.600000, 0.800000,-0.400000
3305175,-0.262056,-1.907104,-0.428952,57.802502,562.590027,-102.059998,32.43,860.25,0.243,0.2145,-0.192,-0.300000, 1.000000,-0.500000
3305205,-0.14396,-1.911496,-0.121512,53.095001,515.47998,-96.827499,32.48,859.909973,0.243,0.2235,-0.2205, 0.000000,-1.000000, 0.900000
3305235,-0.130296,-1.79584,-0.2318,46.427502,511.38501,-95.550003,32.509998,860.179993,0.261,0.228,-0.294, 1.100000, 0.100000, 0.600000
3305265,-0.265472,-1.775832,-0.174704,46.287498,498.172485,-94.254997,32.48,859.27002,0.2715,0.2235,-0.327,-0.800000,-1.000000, 0.000000
3305295,-0.338184,-1.736304,-0.1342,42.3325,453.424988,-103.985001,32.459999,858.809998,0.2895,0.2115,-0.39, 0.300000, 1.300000,-0.700000
3305325,-0.03904,-1.689944,-0.055632,34.737499,426.334991,-104.300003,32.529999,858.51001,0.297,0.189,-0.4035, 0.300000,-0.800000, 0.300000
3305356,-0.30256,-1.64944,-0.333792,30.73,417.934998,-106.802498,32.509998,859.76001,0.3165,0.153,-0.4275,-1.000000,-0.100000,-0.700000
3305386,-0.338184,-1.717272,-0.069784,24.0625,423.692505,-116.025002,32.490002,858.450012,0.318,0.1395,-0.441,-0.200000, 0.600000, 0.500000
3305416,0.354776,-1.679696,-0.194712,18.8475,481.600006,-112.087502,32.48,858.840027,0.3315,0.096,-0.4425, 0.400000,-0.400000, 0.500000
3305446,0.051728,-1.710928,-0.293776,19.827499,573.247498,-111.474998,32.540001,858.960022,0.324,0.072,-0.441, 0.200000,-0.300000,-0.800000
3305476,0.245952,-1.662616,-0.420656,23.625,573.369995,-107.449997,32.450001,857.51001,0.3165,0.018,-0.3885,-0.400000,-1.000000,-0.600000
3305506,0.312808,-1.692384,-0.408944,30.344999,573.369995,-102.987503,32.41,857.02002,0.315,-0.003,-0.357,-0.200000, 1.500000,-0.900000
3305536,0.245464,-1.611376,-0.665632,36.907501,573.369995,-97.772499,32.48,857.140015,0.303,-0.0255,-0.273, 0.700000,-0.800000, 0.000000
3305566,0.226432,-1.650416,-0.454328,46.9175,573.369995,-94.745003,32.41,857.869995,0.2895,-0.027,-0.234, 1.000000,-1.200000,-0.300000
3305596,-0.129808,-1.685064,-0.342576,49.279999,573.369995,-88.480003,32.43,857.47998,0.267,-0.0105,-0.156, 0.200000,-0.100000,-0.100000
3305626,-0.43188,-1.67384,-0.41968,54.827499,573.369995,-84.857498,32.43,858.539978,0.2595,-0.003,-0.1185,-0.100000, 0.800000,-0.500000
3305657,0.367464,-1.611376,-0.374296,58.782501,573.369995,-77.857498,32.48,856.929993,0.237,0.0495,-0.0885,-0.300000,-0.100000, 0.300000
3305687,0.223504,-1.599176,-0.223016,64.172501,572.775024,-74.550003,32.48,857.570007,0.228,0.069,-0.072, 0.100000, 0.100000, 0.200000
3305717,-0.001952,-1.523048,-0.404552,68.074997,572.932495,-77.245003,32.490002,857.169983,0.2295,0.1305,-0.084,-0.300000,-0.100000,-0.600000
3305747,0.14396,-1.480104,-0.35624,69.912498,573.369995,-57.959999,32.43,856.409973,0.2205,0.162,-0.099,-0.400000,-0.300000, 0.100000
3305777,-0.125416,-1.478152,-0.28548,72.362503,573.369995,-48.212502,32.459999,856.679993,0.234,0.216,-0.1635,-0.700000, 0.400000, 0.300000
3305807,0.050752,-1.444968,-0.340136,70.4375,573.369995,-31.0975,32.450001,855.590027,0.2265,0.243,-0.219,-0.800000, 1.400000,-0.500000
3305837,0.154208,-1.375184,-0.252784,71.82,573.369995,-8.12,32.41,857.02002,0.243,0.273,-0.3315,-0.900000,-0.300000,-0.100000
3305867,0.314272,-1.273192,-0.395768,81.514999,573.369995,-2.59,32.48,856.710022,0.2445,0.2655,-0.4425, 0.700000,-1.200000, 0.700000
3305897,-0.221552,-1.246352,-0.834968,77.647499,573.369995,2.0125,32.400002,855.289978,0.267,0.24,-0.5115, 0.500000, 0.300000,-1.400000
3305928,0.577792,-1.135576,-0.803736,77.279999,573.369995,11.2175,32.509998,856.349976,0.2805,0.198,-0.582, 1.000000, 0.500000, 0.100000
3305958,0.3416,-1.188768,-0.783728,70.769997,573.369995,17.115,32.459999,855.409973,0.2895,0.15,-0.591, 0.000000, 1.400000,-0.400000
3305988,0.069296,-1.179008,-0.846192,61.005001,573.369995,23.73,32.41,855.960022,0.306,0.078,-0.579, 0.500000,-0.700000, 0.600000
3306018,0.078568,-1.151192,-0.648552,55.965,573.369995,36.4175,32.48,856.289978,0.3,0.045,-0.555, 0.100000, 0.500000, 1.100000
3306048,0.027816,-1.153144,-0.673928,51.59,573.369995,44.0825,32.43,855.77002,0.3075,-0.012,-0.4785, 0.600000,-0.300000,-1.000000
3306078,0.310856,-1.100928,-0.6588,39.794998,573.369995,55.264999,32.490002,856.320007,0.312,-0.0285,-0.429,-0.800000, 0.100000, 0.200000
3306108,0.06832,-1.08824,-0.671488,24.709999,573.369995,60.41,32.509998,856.140015,0.3015,-0.027,-0.3465,-0.100000,-0.200000,-1.100000
3306138,0.033184,-1.05164,-0.630984,10.6925,573.369995,65.485001,32.380001,855.679993,0.306,-0.03,-0.2955,-0.200000,-0.400000, 0.300000
3306168,-0.05612,-1.008208,-0.495808,2.695,573.317505,66.955002,32.459999,855.409973,0.309,0.0045,-0.2325,-0.100000, 1.400000,-0.400000
3306198,-0.075152,-1.0614,-0.306464,-2.345,546.734985,68.040001,32.43,856.200012,0.3,0.0315,-0.2235, 0.100000,-0.400000, 0.800000
3306229,0.062464,-1.048224,-0.18056,-5.95,504.035004,69.107498,32.509998,854.429993,0.297,0.0675,-0.2205, 0.300000, 0.400000,-0.400000
3306259,0.080032,-1.052616,-0.242536,-4.6025,469.507507,68.477501,32.450001,854.73999,0.3045,0.0945,-0.222,-0.900000, 0.700000, 0.500000
3306289,0.133224,-1.097512,-0.064416,-10.8675,484.470001,66.709999,32.41,855.530029,0.3045,0.1305,-0.246,-0.100000,-0.100000, 0.100000
3306319,0.368928,-0.994056,-0.381616,-17.709999,546.349976,63.4725,32.400002,854.219971,0.297,0.159,-0.273,-0.300000, 0.900000,-0.300000
3306349,0.284992,-0.972584,-0.477752,-28.4725,573.369995,59.325001,32.459999,853.280029,0.3075,0.1875,-0.3405, 0.500000, 0.000000,-0.500000
3306379,0.44652,-0.892064,-0.647576,-35.209999,573.369995,52.990002,32.450001,853.030029,0.2985,0.1935,-0.3945, 0.200000,-0.500000,-0.400000
3306409,0.26352,-0.854976,-0.778848,-45.360001,573.369995,47.529999,32.43,852.789978,0.303,0.1845,-0.4845, 1.000000, 0.100000,-0.500000
3306439,0.051728,-0.851072,-0.586576,-55.877499,573.369995,42.192501,32.41,851.059998,0.3015,0.1695,-0.5295,      NaN,      NaN,      NaN
3306469,0.278648,-0.794464,-0.543632,-69.317497,573.369995,59.325001,32.490002,851.849976,0.303,0.1125,-0.5835,-0.200000,-0.200000, 0.700000
3306499,0.17568,-0.843752,-0.381616,-68.722504,573.369995,44.73,32.560001,851.109985,0.2925,0.075,-0.594, 0.200000, 0.300000, 0.500000
3306530,0.027328,-0.848144,-0.37576,-75.127502,573.369995,38.9025,32.43,852.150024,0.2835,0.0105,-0.555, 0.600000,-1.300000, 0.300000
3306560,0.123464,-0.847656,-0.258152,-70.822502,573.352478,29.33,32.43,850.869995,0.2865,-0.0225,-0.5355, 0.400000, 0.300000,-0.300000
3306590,-0.02196,-0.852048,-0.209352,-71.364998,543.077515,20.737499,32.509998,853.150024,0.285,-0.0615,-0.4695,-0.100000, 0.500000, 0.900000
3306620,0.123464,-0.842288,-0.159088,-73.307503,492.450012,14.0175,32.490002,852.27002,0.273,-0.0735,-0.438, 0.600000, 0.400000, 0.000000
3306650,-0.112728,-0.862296,-0.159576,-74.182503,466.024994,9.6075,32.41,851.059998,0.27,-0.093,-0.369, 0.300000, 0.400000,-0.300000
3306680,0.11468,-0.857904,-0.193248,-68.32,426.859985,0.0,32.41,851.47998,0.2685,-0.0945,-0.336, 0.000000, 0.400000, 0.600000
3306710,0.217648,-0.864736,-0.1464,-66.237503,383.267487,-7.0875,32.450001,851.330017,0.2655,-0.087,-0.2835, 0.100000,-0.600000,-0.600000
3306740,0.103944,-0.816424,-0.125904,-59.552502,346.517487,-11.4275,32.380001,851.0,0.255,-0.0855,-0.2505,-0.300000, 0.000000, 0.100000
3306770,-0.128832,-0.84424,-0.021472,-53.7775,316.382507,-15.26,32.43,850.659973,0.2625,-0.084,-0.2025,-0.200000,-0.400000, 0.500000
3306800,0.303536,-0.808128,-0.029768,-48.23,293.929993,-16.502501,32.450001,850.47998,0.2535,-0.072,-0.192,-0.500000,-0.600000,-0.100000
3306831,0.042456,-0.742248,-0.131272,-41.685001,262.149994,-13.2125,32.48,850.109985,0.258,-0.0585,-0.1755, 0.100000,-0.500000,-0.300000
3306861,-0.070272,-0.752984,0.000488,-36.400002,227.517502,-13.3525,32.450001,849.840027,0.258,-0.06,-0.1605, 0.200000, 0.500000,-0.200000
3306891,0.02684,-0.726632,-0.06832,-30.870001,193.550003,-9.485,32.360001,850.539978,0.252,-0.036,-0.15, 0.000000, 0.100000, 0.000000
3306921,0.135176,-0.689544,0.022936,-26.7575,164.797501,-3.9375,32.41,849.780029,0.261,-0.03,-0.1425,-0.100000, 0.300000,-0.800000
3306951,0.038064,-0.688568,-0.00732,-22.295,155.119995,0.0,32.380001,849.289978,0.264,-0.021,-0.144,-0.600000,-0.500000, 0.600000
3306981,0.037088,-0.682712,0.01708,-20.16,125.107498,4.76,32.360001,848.200012,0.2625,-0.0165,-0.129,-0.100000,-0.300000,-0.100000
3307011,0.023424,-0.666608,0.041968,-15.05,84.139999,9.7475,32.32,848.75,0.2715,-0.0045,-0.123,-0.100000,-0.600000,-0.300000
3307041,0.03904,-0.682712,0.050264,-14.8225,76.4925,12.0575,32.459999,848.799988,0.264,0.021,-0.129, 0.400000, 0.900000, 0.500000
3307071,0.180072,-0.665144,-0.018544,-11.5325,69.474998,16.047501,32.349998,849.22998,0.261,0.024,-0.1275,-0.300000,-0.400000,-0.200000
3307101,0.164456,-0.660752,0.033184,-11.5325,70.017502,16.6075,32.400002,848.049988,0.27,0.0315,-0.1425, 0.500000,-0.300000,-0.200000
3307132,0.305,-0.674416,0.105896,-11.6375,76.107498,18.4275,32.41,848.5,0.2655,0.0345,-0.135,-0.300000,-0.700000, 0.100000
3307162,0.123952,-0.669048,0.065392,-11.76,86.904999,17.5525,32.450001,848.130005,0.27,0.048,-0.135,-0.100000,-0.800000, 0.700000
3307192,0.198616,-0.636352,0.055632,-10.36,96.425003,18.795,32.450001,848.98999,0.282,0.0615,-0.138, 0.400000,-1.100000,-0.500000
3307222,0.172264,-0.6344,0.018056,-9.2925,113.785004,17.605,32.41,848.710022,0.2655,0.066,-0.147, 0.300000,-0.300000,-0.600000
3307252,0.173728,-0.630984,0.044896,-9.905,130.322495,15.8025,32.380001,848.440002,0.2775,0.0765,-0.15, 0.000000,-0.600000,-0.100000
3307282,0.081008,-0.574376,-0.025864,-8.47,140.647507,12.845,32.41,848.080017,0.2745,0.087,-0.15, 0.500000, 1.100000, 0.300000
3307312,0.284504,-0.571936,0.055632,-7.7875,148.714996,12.6875,32.360001,850.119995,0.273,0.1035,-0.147,-0.200000,-0.600000,-0.200000
3307342,-0.004392,-0.594384,0.038064,-6.6325,154.192505,9.9575,32.490002,848.01001,0.273,0.1155,-0.1635,-0.200000, 0.400000, 0.200000
3307372,0.106384,-0.559736,0.013664,-4.5675,151.8125,7.3325,32.41,847.650024,0.2775,0.1275,-0.1665,      NaN,      NaN,      NaN
3307403,-0.006832,-0.580232,0.030256,-3.01,151.095001,5.215,32.299999,847.02002,0.276,0.1455,-0.1845, 0.600000,-0.400000, 0.300000
3307433,0.117608,-0.55144,0.060024,0.7,138.127502,3.2375,32.349998,847.73999,0.2775,0.1395,-0.1905,-0.600000, 0.500000,-0.800000
3307463,0.111752,-0.532896,0.010248,2.695,144.585007,-0.0875,32.360001,847.349976,0.2805,0.156,-0.1935, 0.300000,-0.300000, 0.100000
3307493,0.121512,-0.535336,0.013176,4.025,160.632507,-2.0475,32.400002,846.549988,0.273,0.1485,-0.2055,-1.000000,-0.400000, 0.300000
3307523,0.10248,-0.53924,0.0244,5.5825,158.182495,-3.64,32.400002,846.340027,0.27,0.18,-0.222, 0.300000,-0.100000,-0.600000
3307553,0.0366,-0.548024,0.005856,6.72,162.225006,-6.3,32.299999,847.440002,0.2775,0.18,-0.2265,-0.100000, 0.000000, 0.500000
3307583,0.102968,-0.55144,0.028792,7.5775,173.442505,-8.225,32.349998,847.320007,0.2745,0.1875,-0.2535,-0.700000,-0.500000,-0.900000
3307613,0.145424,-0.532896,-0.036112,7.525,194.705002,-9.5375,32.450001,847.070007,0.2835,0.1845,-0.255,-0.100000,-0.400000, 0.500000
3307643,0.096624,-0.51972,-0.038552,5.985,212.309998,-11.865,32.279999,846.77002,0.2805,0.192,-0.276, 0.700000,-0.800000, 0.200000
3307673,0.134688,-0.50996,0.00732,6.1425,250.774994,-12.6,32.380001,847.159973,0.2895,0.2085,-0.2985, 0.900000,-0.300000, 0.300000
3307704,0.025376,-0.505568,-0.062952,6.93,292.862488,-10.99,32.32,845.77002,0.288,0.2055,-0.3135, 0.200000,-0.200000, 0.500000
3307734,0.174216,-0.50508,-0.047336,5.2675,308.892487,-6.7025,32.400002,846.97998,0.294,0.2025,-0.351,-0.700000, 0.900000,-0.400000
3307764,-0.022936,-0.48068,-0.13908,3.6225,328.667511,-6.3,32.400002,845.700012,0.294,0.2055,-0.3795, 0.300000,-0.100000, 0.400000
3307794,0.12932,-0.460184,-0.10492,0.805,344.102509,-4.3925,32.360001,845.219971,0.306,0.204,-0.4035, 0.200000, 0.900000, 0.300000
3307824,0.064416,-0.4514,-0.101992,-0.245,346.657501,-2.5025,32.380001,845.25,0.2985,0.192,-0.456, 0.300000, 0.800000,-0.100000
3307854,0.066368,-0.4514,-0.08052,-2.4675,344.26001,-2.3275,32.349998,845.400024,0.306,0.1845,-0.471, 0.500000, 0.400000,-0.700000
3307884,0.026352,-0.447984,-0.089792,-5.0225,347.654999,-3.3775,32.349998,844.119995,0.303,0.168,-0.504, 0.300000, 0.200000, 0.300000
3307914,0.167872,-0.44408,-0.111264,-6.8075,357.262512,-5.39,32.32,842.789978,0.3135,0.153,-0.5175, 0.000000, 0.400000, 0.300000
3307944,0.201544,-0.459208,-0.040016,-9.6075,355.845001,-9.87,32.32,844.919983,0.321,0.1275,-0.531, 0.700000, 1.000000, 0.600000
3307974,0.064416,-0.45628,-0.113704,-9.17,351.172485,-14.3675,32.380001,844.179993,0.306,0.1155,-0.549,-0.100000, 0.400000,-0.500000
3308005,0.061976,-0.469944,-0.044896,-7.8575,349.684998,-18.305,32.32,844.700012,0.3105,0.093,-0.5475, 0.400000, 0.500000, 0.100000
3308035,0.135176,-0.458232,-0.047336,-4.7425,343.945007,-21.0875,32.360001,843.940002,0.3105,0.0615,-0.5445, 0.100000, 0.400000, 0.000000
3308065,0.125904,-0.458232,-0.118584,-2.765,339.920013,-24.4475,32.41,844.450012,0.309,0.0345,-0.528, 0.200000,-1.100000, 0.100000
3308095,0.150304,-0.466528,-0.053192,-0.665,335.07251,-25.76,32.400002,844.429993,0.303,0.021,-0.5085, 0.400000, 0.000000, 0.600000
3308125,0.12932,-0.473848,-0.042944,2.7475,333.410004,-27.282499,32.41,844.669983,0.309,-0.0135,-0.468,-0.400000,-0.100000,-0.100000
3308155,0.089792,-0.459696,-0.052704,6.475,329.857513,-27.09,32.41,844.23999,0.297,-0.03,-0.4575, 0.900000, 0.000000, 0.400000
3308185,0.108336,-0.450912,-0.040016,8.4175,351.855011,-27.719999,32.32,843.210022,0.2955,-0.045,-0.402, 0.200000, 0.000000, 0.400000
3308215,0.007808,-0.422608,-0.128344,10.8675,367.220001,-23.6425,32.380001,842.47998,0.2865,-0.069,-0.336, 0.100000, 0.200000,-0.700000
3308245,0.042456,-0.432856,-0.11712,12.04,364.82251,-19.827499,32.360001,843.72998,0.288,-0.069,-0.3045,-0.300000,-0.600000,-0.400000
3308275,0.046848,-0.398696,-0.22204,12.1275,363.17749,-18.725,32.400002,843.359985,0.267,-0.0585,-0.246, 0.400000,-0.100000, 0.400000
3308306,0.137128,-0.391864,-0.154696,9.345,368.515015,-15.855,32.360001,843.090027,0.27,-0.0525,-0.219,-0.400000, 0.700000, 0.000000
3308336,0.023424,-0.402112,-0.143472,7.7525,375.725006,-14.6825,32.450001,842.809998,0.2595,-0.048,-0.1635, 0.400000, 0.400000, 0.700000
3308366,0.096624,-0.390888,-0.13664,5.46,367.762512,-14.525,32.330002,842.390015,0.255,-0.033,-0.1455,-0.200000,-0.300000, 0.600000
3308396,0.059536,-0.37576,-0.2074,4.235,379.36499,-15.8025,32.330002,841.75,0.2505,0.0105,-0.111, 0.500000,-0.100000, 0.400000
3308426,0.101504,-0.391864,-0.099064,3.1675,381.902496,-17.184999,32.400002,842.299988,0.2565,0.015,-0.114,-0.700000,-0.300000, 0.000000
3308456,0.105896,-0.381128,-0.142984,2.38,385.454987,-18.305,32.360001,842.23999,0.246,0.0495,-0.093, 0.200000, 0.300000, 0.800000
3308486,-0.002928,-0.383568,-0.172752,3.815,383.704987,-20.0725,32.41,841.469971,0.2355,0.072,-0.0915,-0.200000,-0.700000, 0.700000
3308516,0.10248,-0.366976,-0.15616,5.3375,378.875,-20.264999,32.360001,840.960022,0.24,0.1185,-0.117,-0.400000, 0.000000, 0.600000
3308546,0.002928,-0.368928,-0.171288,7.595,372.172485,-21.227501,32.41,841.26001,0.2385,0.135,-0.1185, 0.100000,-0.400000,-0.800000
3308576,0.106872,-0.372832,-0.124928,9.5375,373.940002,-21.559999,32.330002,841.75,0.243,0.168,-0.153, 0.600000, 0.500000,-0.800000
3308607,0.076128,-0.390888,-0.113704,11.9,375.42749,-21.245001,32.349998,841.570007,0.2445,0.186,-0.18, 0.500000,-0.900000,-0.100000
3308637,0.066368,-0.378688,-0.14152,15.12,371.4375,-20.422501,32.27,841.849976,0.255,0.213,-0.225, 0.000000,-0.400000,-0.700000
3308667,0.042944,-0.385032,-0.147376,17.622499,373.765015,-19.057501,32.299999,840.200012,0.2475,0.222,-0.2565,-0.200000, 0.600000, 0.300000
3308697,0.174216,-0.383568,-0.123952,21.209999,370.230011,-16.1525,32.360001,840.75,0.261,0.2295,-0.3105,-0.200000,-0.700000, 0.400000
3308727,0.098576,-0.382592,-0.121512,22.3825,369.179993,-14.3675,32.360001,840.530029,0.2595,0.24,-0.3255, 0.100000, 0.900000,-0.500000
3308757,0.127368,-0.373808,-0.109312,23.344999,359.309998,-10.955,32.349998,841.98999,0.2715,0.2415,-0.387,-0.400000, 0.000000, 0.700000
3308787,0.055632,-0.358192,-0.148352,24.202499,358.505005,-8.575,32.349998,840.289978,0.2655,0.2325,-0.408,-0.200000, 0.200000, 0.400000
3308817,0.076616,-0.3538,-0.099064,23.1525,357.769989,-4.9175,32.299999,841.049988,0.282,0.231,-0.4545,-0.900000,-0.200000,-0.700000
3308847,0.076616,-0.341112,-0.108824,22.33,348.827515,-2.415,32.330002,840.26001,0.279,0.2235,-0.4725,-0.700000, 0.200000,-0.100000
3308877,0.130296,-0.330864,-0.113704,20.370001,346.972504,-0.56,32.400002,840.169983,0.2895,0.2025,-0.519,-0.600000, 0.700000,-0.400000
3308908,0.111752,-0.325496,-0.081008,19.705,339.01001,0.91,32.400002,839.530029,0.303,0.189,-0.528, 0.400000,-0.200000,-0.500000
3308938,0.047824,-0.307928,-0.132248,17.237499,326.515015,0.2975,32.360001,839.469971,0.3045,0.1695,-0.5475, 0.600000,-0.600000, 0.500000
3308968,0.072712,-0.30012,-0.080032,14.91,329.787506,0.98,32.349998,839.22998,0.2985,0.153,-0.555, 0.200000,-0.800000,-0.700000
3308998,0.03172,-0.289872,-0.135176,13.055,325.674988,0.035,32.349998,838.799988,0.3,0.126,-0.564, 0.000000, 0.100000, 0.700000
3309028,0.05612,-0.2806,-0.150304,10.2025,333.007507,-0.56,32.330002,839.200012,0.303,0.1035,-0.5625, 0.100000, 1.000000, 0.400000
3309058,0.048312,-0.269864,-0.112728,9.135,330.69751,-0.245,32.349998,840.080017,0.309,0.078,-0.5565, 0.300000, 0.100000,-0.500000
3309088,0.07808,-0.267424,-0.111264,7.3325,334.092499,-2.1875,32.279999,839.320007,0.3075,0.0525,-0.5535, 0.600000,-0.600000,-0.700000
3309118,0.066368,-0.24888,-0.185928,7.2275,339.255005,-3.2375,32.349998,839.440002,0.3165,0.0285,-0.528, 0.200000, 0.000000, 0.000000
3309148,0.079056,-0.267424,-0.094184,6.3875,344.434998,-5.145,32.32,839.380005,0.303,0.009,-0.5055,-0.500000,-0.600000,-0.600000
3309179,0.063928,-0.275232,-0.087352,6.335,351.820007,-6.615,32.41,838.919983,0.306,-0.009,-0.4755, 0.400000, 0.000000,-0.400000
3309209,0.123464,-0.264008,-0.113704,7.56,361.130005,-8.8025,32.330002,839.200012,0.3,-0.0255,-0.4425,-0.400000,-0.100000,-0.800000
3309239,0.045872,-0.264496,-0.157136,8.9075,363.842499,-9.31,32.43,839.369995,0.2985,-0.0405,-0.4035, 0.600000,-0.100000, 0.700000
3309269,0.05856,-0.27572,-0.081008,11.095,355.757507,-10.4125,32.360001,837.76001,0.288,-0.048,-0.366,-0.400000,-0.400000,-0.100000
3309299,0.102968,-0.273768,-0.087352,13.1075,352.747498,-10.3075,32.450001,838.119995,0.2895,-0.057,-0.3195, 0.600000,-1.300000, 0.000000
3309329,0.058072,-0.270352,-0.107848,15.995,349.842499,-9.835,32.330002,838.97998,0.2925,-0.051,-0.2835, 0.000000, 0.200000, 0.300000
3309359,0.101504,-0.249368,-0.127856,17.43,356.125,-7.7,32.349998,839.01001,0.279,-0.0495,-0.2415, 0.300000,-0.400000, 0.400000
3309389,0.06344,-0.263032,-0.135176,18.76,350.857513,-6.1775,32.299999,838.919983,0.2805,-0.0375,-0.2145, 0.500000, 0.500000,-0.500000
3309419,0.061488,-0.27328,-0.132248,19.7575,353.325012,-3.3075,32.43,838.52002,0.2685,-0.024,-0.1605, 0.000000, 0.400000,-0.600000
3309449,0.028304,-0.260104,-0.160064,20.0375,352.537506,-0.84,32.360001,838.190002,0.2625,0.009,-0.129, 0.300000,-0.200000,-0.400000
3309480,0.067832,-0.263032,-0.09028,19.355,350.524994,1.155,32.349998,837.950012,0.264,0.0225,-0.1185, 0.500000,-0.300000,-0.800000
3309510,0.042456,-0.244,-0.105408,19.2675,350.665009,3.885,32.349998,837.309998,0.246,0.0675,-0.105, 0.300000, 0.100000, 0.700000
3309540,0.050752,-0.244,-0.139568,19.145,342.632507,5.8975,32.299999,837.429993,0.249,0.0735,-0.108,-1.000000,-0.100000,-0.500000
3309570,0.052216,-0.245464,-0.096136,17.709999,339.377502,8.1725,32.380001,836.940002,0.2475,0.1215,-0.111,-0.400000, 1.100000, 0.200000
3309600,0.064904,-0.23912,-0.119072,16.344999,330.890015,9.5725,32.360001,838.190002,0.2475,0.1485,-0.135, 0.000000,-0.100000, 0.500000
3309630,0.050264,-0.249856,-0.066368,14.6825,331.065002,10.43,32.360001,837.549988,0.2415,0.1785,-0.153, 0.500000,-0.300000, 0.500000
3309660,0.064416,-0.22204,-0.096136,12.3725,333.462494,11.0425,32.32,837.039978,0.2445,0.1905,-0.177, 0.200000, 0.600000, 0.100000
3309690,0.054168,-0.224968,-0.108336,10.6225,331.765015,12.0575,32.41,835.940002,0.243,0.228,-0.222, 0.300000, 0.000000, 0.800000
3309720,0.122488,-0.22692,-0.07564,9.0125,332.570007,11.76,32.41,836.359985,0.237,0.2385,-0.249, 0.300000, 0.100000, 0.500000
3309750,0.016104,-0.208864,-0.136152,7.7875,335.702515,12.0225,32.459999,836.450012,0.2475,0.2505,-0.309,-0.400000,-0.500000, 0.600000
3309781,0.06588,-0.205448,-0.080032,5.9675,334.477509,11.6025,32.330002,835.789978,0.2475,0.264,-0.348, 0.800000, 1.100000,-0.100000
3309811,0.083936,-0.223992,-0.059048,4.4975,336.92749,11.62,32.349998,834.969971,0.2535,0.2625,-0.4065, 0.800000, 0.700000, 0.500000
3309841,0.05612,-0.2074,-0.098088,3.9725,340.462494,11.1825,32.380001,836.299988,0.249,0.264,-0.4335, 1.200000, 0.000000, 0.800000
3309871,0.048312,-0.199592,-0.087352,3.1675,341.320007,11.8125,32.299999,835.940002,0.261,0.2595,-0.501, 0.800000, 0.300000,-0.200000
3309901,0.115168,-0.206424,-0.076616,2.17,344.924988,12.0575,32.41,835.940002,0.261,0.2505,-0.531, 0.300000,-0.100000,-0.100000
3309931,0.05368,-0.182024,-0.142496,2.17,340.934998,12.53,32.400002,836.549988,0.261,0.219,-0.5745, 0.200000, 0.500000, 0.200000
3309961,-0.030744,-0.205936,-0.122488,0.84,342.387512,13.3875,32.299999,836.159973,0.2625,0.2145,-0.6135,-0.400000, 0.600000, 0.200000
3309991,0.05612,-0.206912,-0.078568,-0.455,343.769989,14.4375,32.43,835.75,0.264,0.183,-0.6405,-0.700000, 0.000000, 0.500000
3310021,0.034648,-0.193736,-0.125904,-2.835,351.890015,15.2425,32.43,836.390015,0.273,0.165,-0.6435,-0.200000, 0.300000,-0.800000
3310051,0.04392,-0.206424,-0.073688,-4.8475,353.325012,15.89,32.330002,835.789978,0.2715,0.129,-0.6705,-0.100000, 0.200000,-0.500000
3310082,0.06832,-0.192272,-0.093208,-7.4375,355.915009,16.2575,32.330002,834.719971,0.267,0.0975,-0.6615,-0.100000,-0.700000, 0.400000
3310112,0.064416,-0.186904,-0.105408,-9.345,358.662506,16.309999,32.330002,836.0,0.273,0.051,-0.639,-0.300000, 0.500000,-1.000000
3310142,0.04636,-0.177632,-0.148352,-12.46,364.05249,15.505,32.41,836.359985,0.2625,0.03,-0.6285, 0.800000, 0.000000,-0.600000
3310172,0.037088,-0.180072,-0.169824,-14.6125,370.404999,14.175,32.41,834.869995,0.267,-0.0075,-0.591,-0.200000, 0.400000, 0.400000
3310202,0.020496,-0.185928,-0.111264,-17.762501,371.209991,12.4075,32.400002,835.049988,0.264,-0.024,-0.576, 0.400000,-0.400000, 0.100000
3310232,0.04636,-0.193248,-0.071736,-19.3025,364.140015,10.6575,32.400002,834.200012,0.2655,-0.066,-0.5235, 0.500000,-0.600000, 0.300000
3310262,0.028304,-0.171776,-0.134688,-20.65,365.434998,8.4875,32.450001,834.929993,0.261,-0.0765,-0.4965, 0.600000,-0.700000, 0.400000
3310292,0.04636,-0.173728,-0.114192,-21.682501,370.649994,6.475,32.41,834.869995,0.249,-0.1005,-0.4065,-0.400000, 0.100000,-0.800000
3310322,0.042456,-0.162992,-0.156648,-22.33,375.690002,4.305,32.330002,834.299988,0.2565,-0.1005,-0.381,-0.500000,-0.200000,-0.900000
3310352,0.040992,-0.175192,-0.144936,-23.344999,379.067505,1.89,32.380001,833.960022,0.237,-0.114,-0.306,-0.600000, 0.900000,-0.600000
3310383,0.044896,-0.166408,-0.142008,-22.715,378.875,-0.595,32.450001,833.650024,0.2385,-0.1125,-0.276,-0.900000, 0.000000, 0.300000
3310413,0.005368,-0.166408,-0.136152,-22.610001,376.792511,-2.5375,32.380001,834.169983,0.2445,-0.087,-0.2115,-0.100000, 0.800000,-0.900000
3310443,0.023424,-0.16348,-0.118096,-20.58,368.375,-4.1125,32.330002,833.450012,0.2385,-0.084,-0.18, 0.000000, 0.600000, 0.200000
3310473,0.05856,-0.149816,-0.13664,-19.110001,362.582489,-5.3375,32.400002,833.140015,0.234,-0.06,-0.1305, 0.200000,-0.600000, 1.300000
3310503,0.0122,-0.16348,-0.108336,-18.094999,360.954987,-6.4925,32.509998,834.619995,0.228,-0.042,-0.111, 0.300000,-0.600000,-0.400000
3310533,0.025864,-0.15616,-0.118584,-16.2575,356.369995,-6.9125,32.459999,834.530029,0.231,-0.0105,-0.0825,-0.300000, 0.500000, 0.500000
3310563,0.029768,-0.156648,-0.135176,-15.2075,353.027496,-6.79,32.349998,833.47998,0.231,0.0195,-0.069, 0.800000,-0.900000, 0.500000
3310593,0.025376,-0.143472,-0.145424,-13.755,350.524994,-6.1425,32.380001,832.679993,0.228,0.0555,-0.072,-0.700000, 0.300000, 0.400000
3310623,-0.0488,-0.143472,-0.10736,-12.4425,338.327515,-5.39,32.41,833.169983,0.2295,0.0975,-0.075,-0.100000,-0.100000, 0.500000
3310653,0.000488,-0.149328,-0.089304,-11.235,331.222504,-3.7975,32.380001,831.830017,0.228,0.1155,-0.0975, 0.100000, 0.500000,-0.900000
3310684,-0.000976,-0.125416,-0.121024,-11.0075,322.945007,-2.03,32.349998,833.049988,0.2385,0.1545,-0.123, 0.400000,-0.700000,-0.400000
3310714,-0.001952,-0.135664,-0.069784,-11.06,317.397491,-1.19,32.41,833.590027,0.234,0.1725,-0.144,-1.000000, 0.600000,-0.700000
3310744,0.061,-0.12932,-0.08784,-10.605,313.827515,-0.245,32.360001,833.289978,0.2445,0.207,-0.189, 0.300000,-0.500000, 0.400000
3310774,0.000976,-0.130296,-0.09272,-11.34,311.01001,0.5775,32.360001,833.929993,0.2445,0.2115,-0.216, 0.500000,-0.400000,-0.200000
3310804,0.00976,-0.138592,-0.093208,-11.8125,303.817505,1.12,32.43,832.97998,0.2445,0.243,-0.2685,-0.300000,-0.400000, 0.100000
3310834,0.047336,-0.133224,-0.07564,-12.2325,293.720001,0.2625,32.400002,832.710022,0.237,0.258,-0.2985,-0.600000,-0.200000,-0.500000
3310864,0.09516,-0.129808,-0.07564,-12.8275,286.422485,-0.105,32.450001,834.5,0.2505,0.2595,-0.3615,-0.600000, 0.800000,-0.100000
3310894,0.006344,-0.122976,-0.081008,-13.5975,283.797485,-1.1025,32.43,833.200012,0.255,0.255,-0.3915,-0.200000,-0.300000, 0.700000
3310924,0.036112,-0.123464,-0.079056,-14.49,284.76001,-1.3475,32.400002,832.710022,0.2655,0.2565,-0.4425, 0.800000,-0.600000, 0.400000
3310955,0.060512,-0.125904,-0.0732,-15.085,285.582489,-2.1875,32.41,832.73999,0.2595,0.246,-0.477, 0.200000, 0.700000, 0.600000
3310985,0.014152,-0.130784,-0.06832,-15.8725,278.127502,-3.15,32.400002,833.140015,0.261,0.2385,-0.516, 0.200000,-0.300000, 0.300000
3311015,-0.002928,-0.118584,-0.097112,-15.715,269.744995,-4.655,32.459999,833.469971,0.2655,0.2265,-0.54,-0.700000, 0.400000,-0.500000
3311045,0.003904,-0.124928,-0.062464,-15.995,263.899994,-6.0725,32.360001,832.650024,0.273,0.2085,-0.5775, 0.100000,-0.700000, 0.000000
3311075,0.021472,-0.120536,-0.06344,-16.275,260.662506,-6.685,32.450001,833.01001,0.2745,0.1935,-0.5925, 0.100000,-0.800000, 0.600000
3311105,0.062952,-0.121512,-0.054656,-16.2225,253.014999,-7.6475,32.450001,832.590027,0.2745,0.1725,-0.6255, 0.000000,-0.500000, 0.400000
3311135,-0.000488,-0.116144,-0.050264,-16.450001,250.145004,-8.995,32.43,833.409973,0.2715,0.153,-0.639,-0.700000, 0.000000, 0.400000
3311165,0.020008,-0.11956,-0.040016,-16.5375,249.532501,-9.7475,32.450001,833.01001,0.2745,0.1245,-0.642, 0.300000,-0.700000,-0.100000
3311195,0.001464,-0.111264,-0.066856,-16.467501,249.619995,-10.955,32.32,832.140015,0.279,0.1095,-0.6495,-0.600000, 0.300000, 0.300000
3311225,0.022448,-0.106384,-0.066368,-16.344999,248.815002,-12.11,32.509998,833.77002,0.273,0.069,-0.6465, 0.000000, 0.700000,-0.100000
3311256,0.033672,-0.112728,-0.052704,-16.502501,251.684998,-13.265,32.450001,832.799988,0.2595,0.054,-0.6465, 0.100000, 0.000000, 0.400000
3311286,0.00976,-0.105896,-0.070272,-15.6625,250.949997,-13.9825,32.41,832.950012,0.2655,0.021,-0.6285,-0.400000, 0.800000,-0.500000
3311316,0.0366,-0.101992,-0.052216,-15.54,251.544998,-15.5925,32.43,832.559998,0.2595,0.0015,-0.6075,-0.600000,-0.200000, 0.300000
3311346,0.010736,-0.11224,-0.054168,-15.0325,253.574997,-16.012501,32.330002,831.960022,0.2595,-0.0255,-0.585,-0.700000, 0.000000,-0.300000
3311376,0.020984,-0.114192,-0.030256,-14.49,249.794998,-17.1675,32.41,831.679993,0.2595,-0.045,-0.5625, 0.700000,-0.400000, 0.000000
3311406,-0.005856,-0.110288,-0.057584,-13.615,250.057495,-18.235001,32.41,830.609985,0.246,-0.078,-0.5235, 1.100000,-0.500000,-0.600000
3311436,-0.015616,-0.106384,-0.038552,-12.565,247.432495,-18.725,32.48,832.219971,0.246,-0.0825,-0.4965, 0.200000,-0.800000, 0.400000
3311466,0.00732,-0.101016,-0.0488,-11.8125,248.552505,-19.3025,32.41,831.679993,0.2295,-0.1035,-0.4545,-0.200000,-0.200000,-0.600000
3311496,0.014152,-0.106384,-0.05124,-10.92,253.785004,-19.915001,32.43,831.710022,0.2385,-0.1095,-0.4275,-0.400000,-0.500000,-0.600000
3311526,0.001952,-0.101992,-0.069784,-9.94,254.922501,-20.422501,32.400002,831.429993,0.2235,-0.1305,-0.3735, 0.300000,-0.100000,-0.200000
3311557,0.008296,-0.111264,-0.061,-8.68,256.882507,-20.9825,32.48,831.789978,0.219,-0.129,-0.3405, 0.100000, 0.900000, 0.400000
3311587,0.03172,-0.115168,-0.05368,-7.5775,255.447495,-21.5075,32.450001,831.52002,0.2175,-0.1425,-0.285, 0.100000,-0.100000, 0.400000
3311617,0.035624,-0.108824,-0.05124,-5.3725,252.507507,-22.434999,32.41,832.099976,0.2085,-0.1335,-0.252, 0.200000, 0.600000, 0.300000
3311647,0.032696,-0.108824,-0.03904,-3.185,247.029999,-23.275,32.400002,831.429993,0.1935,-0.132,-0.201,-0.400000, 0.200000, 0.500000
3311677,0.013664,-0.108336,-0.047824,-1.225,245.419998,-24.1675,32.41,831.890015,0.1965,-0.12,-0.165,-0.600000, 0.200000, 0.300000
3311707,-0.002928,-0.110288,-0.050752,0.98,243.774994,-24.727501,32.43,830.849976,0.183,-0.117,-0.114, 0.600000, 0.200000, 0.300000
3311737,0.018056,-0.106872,-0.049776,3.395,242.445007,-24.605,32.360001,830.73999,0.18,-0.1065,-0.1125, 0.400000, 0.400000,-0.600000
3311767,-0.015616,-0.106872,-0.068808,5.705,242.410004,-24.4475,32.380001,832.26001,0.171,-0.0795,-0.0615, 0.600000, 0.700000,-0.100000
3311797,0.016592,-0.112728,-0.032696,7.56,241.360001,-23.870001,32.41,831.039978,0.1665,-0.0525,-0.0285,      NaN,      NaN,      NaN
3311827,0.00976,-0.10492,-0.061488,9.975,238.559998,-22.907499,32.330002,831.099976,0.156,-0.0375,-0.0045,-0.700000,-1.300000,-0.300000
3311858,0.000976,-0.108336,-0.047336,12.145,239.119995,-21.735001,32.360001,829.890015,0.144,0.0045,0.0195,-0.100000, 0.900000, 0.400000
3311888,-0.002928,-0.107848,-0.050264,13.895,240.485001,-20.16,32.360001,830.73999,0.144,0.015,0.027, 0.700000, 0.800000, 0.400000
3311918,0.022448,-0.105896,-0.050752,15.785,237.684998,-18.514999,32.380001,831.619995,0.141,0.0495,0.0345, 0.600000,-0.100000,-0.300000
3311948,0.025864,-0.101016,-0.059048,17.254999,237.895004,-17.045,32.360001,831.380005,0.144,0.0675,0.0375,-0.500000, 0.900000, 0.600000
3311978,0.012688,-0.103944,-0.053192,18.41,239.259995,-14.525,32.400002,829.940002,0.1335,0.108,0.027,-1.100000, 0.500000,-0.600000
3312008,0.011224,-0.10248,-0.066368,19.512501,240.502502,-12.6,32.349998,831.130005,0.1305,0.1365,0.0135, 0.000000, 0.000000,-0.700000
3312038,0.02928,-0.098576,-0.056608,20.1775,240.380005,-10.1675,32.360001,830.73999,0.123,0.1695,0.009,-1.100000,-0.400000,-0.400000
3312068,0.020008,-0.094184,-0.067832,20.807501,240.414993,-7.735,32.400002,831.650024,0.126,0.1845,-0.012, 0.000000,-0.800000,-0.400000
3312098,0.022448,-0.088328,-0.076616,20.825001,243.145004,-5.39,32.48,830.72998,0.123,0.2295,-0.0405, 0.300000,-0.100000,-0.600000
3312128,0.013176,-0.100528,-0.05124,20.895,244.072495,-3.01,32.360001,829.460022,0.12,0.2415,-0.069,-1.000000, 0.700000, 0.100000
3312159,0.044896,-0.090768,-0.05124,20.51,245.279999,-0.385,32.400002,830.369995,0.123,0.279,-0.108, 0.800000,-1.100000, 0.300000
3312189,0.01464,-0.090768,-0.049776,19.6875,246.487503,2.38,32.41,830.400024,0.114,0.2925,-0.144, 0.200000, 0.100000, 0.600000
3312219,0.037576,-0.089304,-0.038064,18.987499,246.767502,4.97,32.349998,830.5,0.1245,0.3195,-0.1965, 0.700000,-0.100000, 0.500000
3312249,0.027816,-0.08296,-0.064904,17.815001,245.175003,7.315,32.380001,829.48999,0.1155,0.3375,-0.228, 0.600000, 0.800000,-0.200000
3312279,0.01708,-0.090768,-0.043432,16.5375,243.985001,9.03,32.360001,830.73999,0.1275,0.345,-0.2895,-0.100000,-1.300000, 0.300000
3312309,0.0122,-0.083936,-0.04148,14.6125,244.597504,11.2875,32.41,831.460022,0.1275,0.348,-0.327, 0.200000,-0.400000, 0.300000
3312339,1.61772,4.576952,-0.10004,23.870001,240.274994,9.415,32.459999,828.140015,0.1395,0.3675,-0.387,73.000000,-10.400000,10.100000
3312369,2.456104,-1.483032,0.455304,-0.42,72.415001,15.085,32.43,831.48999,0.1215,0.369,-0.4395,-5.100000,-0.200000,-2.700000
3312399,0.647576,-0.867664,0.477752,13.6325,220.464996,11.62,32.380001,830.77002,0.132,0.3555,-0.495,-4.000000, 1.300000, 0.300000
3312429,-0.309392,-2.968504,0.2074,-12.7225,171.604996,7.4025,32.41,829.549988,0.1245,0.3615,-0.525,-4.100000, 0.700000, 0.000000
3312460,0.665632,-5.525624,0.055632,-18.865,122.43,-6.2125,32.459999,830.48999,0.1275,0.3495,-0.576,-4.700000,-1.400000,-0.500000
3312490,0.32208,-3.321328,-0.63684,-18.305,110.827499,-29.3825,32.490002,830.330017,0.144,0.345,-0.582,-2.100000, 0.700000, 0.000000
3312520,0.300608,-2.054968,0.167384,-23.922501,118.790001,-34.107498,32.43,830.0,0.147,0.3225,-0.6165,-0.800000, 0.100000, 0.400000
3312550,0.023424,-0.659288,-0.014152,-21.0875,137.392502,-38.115002,32.41,829.330017,0.1545,0.3285,-0.627, 1.200000,-0.400000, 0.600000
3312580,0.001464,-0.271816,-0.00488,-17.377501,148.347504,-38.587502,32.48,831.789978,0.156,0.303,-0.6705,-0.200000, 0.800000, 0.400000
3312610,0.048312,-0.19764,0.05124,-14.6825,152.460007,-38.0975,32.41,829.549988,0.1635,0.2955,-0.684, 1.500000, 0.000000,-0.200000
3312640,0.045384,-0.241072,-0.006344,-11.1125,153.737503,-38.0975,32.400002,830.369995,0.168,0.2595,-0.7155, 0.500000,-0.500000, 0.600000
3312670,0.057584,-0.347456,-0.01952,-7.175,156.835007,-35.560001,32.380001,830.340027,0.1725,0.2535,-0.726,-0.100000, 0.600000,-0.200000
3312700,0.05368,-0.317688,-0.00244,-3.5875,162.994995,-33.6175,32.400002,829.52002,0.1725,0.2235,-0.7605, 0.300000, 0.500000,-0.700000
3312731,0.013176,-0.290848,-0.010736,0.56,166.967499,-32.112499,32.43,828.719971,0.177,0.1995,-0.762,-0.600000, 0.500000,-0.500000
3312761,0.033184,-0.230824,0.034648,4.34,164.9375,-29.2775,32.43,831.070007,0.186,0.174,-0.7725, 0.600000, 0.500000, 1.100000
3312791,0.057096,-0.311344,0.020496,7.6125,158.602493,-27.825001,32.41,829.330017,0.186,0.1635,-0.7665,-0.700000,-0.100000,-0.400000
3312821,0.038552,-0.315736,0.000976,10.185,146.229996,-23.747499,32.400002,830.159973,0.1905,0.1185,-0.7665, 0.900000, 0.900000,-0.600000
3312851,-0.000488,-0.332328,-0.022448,11.0425,130.042496,-20.1425,32.459999,829.419983,0.192,0.1155,-0.777,-0.200000,-0.400000,-0.400000
3312881,-0.133224,-0.584624,-0.015616,8.1025,90.457497,-13.125,32.41,829.330017,0.1935,0.0855,-0.771,-0.900000, 0.700000,-0.900000
3312911,-0.12688,-0.843752,-0.009272,1.365,29.3125,-1.75,32.400002,830.159973,0.195,0.081,-0.765, 0.000000,-0.600000, 0.600000
3312941,-0.17568,-1.025288,-0.09272,-9.1,-61.355,12.3375,32.43,830.0,0.1905,0.0765,-0.756,-0.200000, 0.100000,-0.100000
3312971,-0.183,-1.321504,-0.170312,-18.112499,-177.642502,27.1775,32.43,829.580017,0.1935,0.0975,-0.7665,-0.900000, 0.400000,-0.500000
3313001,0.325008,-0.768112,0.13176,-28.4025,-259.542511,39.970001,32.400002,829.72998,0.192,0.1215,-0.771,-0.100000,-0.900000, 0.400000
3313032,0.087352,-0.162504,-0.333792,-19.2325,-270.269989,50.084999,32.41,829.549988,0.1695,0.1755,-0.765, 0.700000,-0.300000,-1.300000
3313062,0.218624,-0.8174,-0.33916,-15.05,-367.5,66.0625,32.41,829.119995,0.168,0.2025,-0.7545, 0.100000, 0.500000,-0.700000
3313092,0.441152,-1.943216,-0.266936,-15.2425,-438.095001,76.4925,32.41,829.330017,0.1485,0.273,-0.7095,-0.800000,-0.900000, 0.500000
3313122,0.157136,-1.500112,-0.174704,-7.525,-522.164978,89.529999,32.43,829.359985,0.141,0.3165,-0.657, 0.000000,-0.300000,-0.100000
3313152,-0.018544,-1.67384,0.00488,5.9325,-562.57251,93.642502,32.450001,829.179993,0.0975,0.3675,-0.531,-0.600000, 0.000000, 0.800000
3313182,0.210328,-1.70556,-0.50264,30.695,-573.369995,94.447502,32.450001,829.599976,0.075,0.3855,-0.4305,-0.600000, 1.000000, 0.200000
3313212,0.262544,-1.60308,-0.67588,57.102501,-573.369995,86.205002,32.41,830.400024,0.0255,0.372,-0.21,-0.300000, 0.000000, 0.400000
3313242,0.225944,-1.3664,-0.488488,79.537498,-573.369995,60.8475,32.459999,830.909973,-0.0045,0.336,-0.1065, 0.000000, 0.200000,-0.300000
3313272,0.164944,-1.006256,-0.552416,88.987503,-573.369995,31.115,32.330002,829.830017,-0.0345,0.234,0.0675, 0.800000, 0.000000, 0.400000
3313302,0.153232,-1.046272,-0.640256,84.035004,-573.369995,0.7175,32.41,828.47998,-0.057,0.168,0.12, 0.200000, 0.100000,-0.500000
3313333,0.035624,-0.852048,-0.81008,65.345001,-573.369995,-24.202499,32.380001,830.97998,-0.081,0.012,0.153, 0.900000, 0.800000, 0.500000
3313363,0.057096,-0.670512,-0.904752,34.212502,-573.369995,-31.5525,32.459999,829.419983,-0.0825,-0.0735,0.1125, 0.500000, 0.600000, 0.200000
3313393,0.040992,-0.779336,-0.786168,10.4825,-573.369995,-18.235001,32.41,828.909973,-0.0645,-0.207,-0.087, 0.100000, 0.700000, 0.400000
3313423,0.192272,-0.842288,-0.796416,3.57,-573.369995,7.455,32.380001,830.130005,-0.066,-0.234,-0.24, 0.200000,-0.800000, 0.400000
3313453,0.223992,-0.926224,-0.64904,20.6675,-573.369995,32.287498,32.43,830.640015,-0.0135,-0.198,-0.5595, 0.100000,-0.100000, 0.000000
3313483,0.382104,-0.743712,-0.544608,42.665001,-573.369995,32.287498,32.48,829.880005,-0.006,-0.138,-0.678, 0.300000, 0.100000, 0.400000
3313513,0.33916,-0.835944,-0.26108,54.862499,-573.369995,14.875,32.380001,828.849976,0.0225,0.009,-0.846, 0.300000, 0.200000,-0.700000
3313543,0.262544,-0.84668,-0.487512,60.689999,-573.369995,-6.16,32.48,830.090027,0.0405,0.087,-0.873, 0.700000, 0.800000,-0.500000
3313573,0.226432,-0.813008,-0.516792,47.775002,-573.369995,-27.23,32.43,829.359985,0.0495,0.24,-0.837,      NaN,      NaN,      NaN
3313603,0.169824,-0.697352,-0.5856,30.327499,-573.369995,-36.154999,32.43,829.580017,0.048,0.3015,-0.798, 1.000000, 0.000000, 0.500000
3313634,0.088816,-0.651968,-0.697352,12.1625,-573.369995,-30.555,32.41,829.549988,0.0405,0.3915,-0.6105, 0.600000,-0.600000, 0.200000
3313664,0.149328,-0.642696,-0.785192,1.435,-573.369995,-9.1525,32.380001,830.549988,0.0285,0.4095,-0.4815,-0.300000, 0.900000, 0.000000
3313694,0.301584,-0.706624,-0.667584,3.465,-573.369995,18.3225,32.360001,829.030029,0.0075,0.3945,-0.2205,-0.600000,-0.400000,-0.300000
3313724,0.305,-0.66124,-0.490928,20.387501,-573.369995,32.445,32.41,829.969971,-0.012,0.3555,-0.1095,-0.400000,-0.200000, 0.300000
3313754,0.424072,-0.587552,-0.343064,41.842499,-573.369995,26.442499,32.360001,829.030029,-0.0375,0.2385,0.063,-0.700000, 0.000000,-0.100000
3313784,0.701744,-0.432856,-0.241072,60.025002,-529.094971,10.9025,32.43,830.849976,-0.045,0.18,0.102, 0.700000,-0.300000,-0.300000
3313814,0.417728,-0.250832,-0.0122,82.004997,-374.709991,-22.2775,32.43,829.789978,-0.0675,0.0675,0.159, 0.900000,-0.300000, 0.100000
3313844,0.46604,-0.330376,0.023912,91.455002,-238.157501,-52.9725,32.400002,829.090027,-0.081,0.033,0.1515, 0.200000, 0.100000, 1.600000
3313874,0.21228,-0.310856,0.018056,93.922501,-149.922501,-74.987503,32.529999,830.599976,-0.1095,-0.0225,0.1485,-0.300000, 0.100000,-0.300000
3313904,0.021472,-0.281576,-0.016104,93.449997,-90.702499,-87.552498,32.400002,830.369995,-0.123,-0.033,0.15,-0.200000, 0.200000, 0.500000
3313935,0.005856,-0.332328,0.032208,94.8675,-42.682499,-98.472504,32.490002,830.539978,-0.1605,-0.06,0.138, 0.100000, 0.100000,-0.300000
3313965,0.144936,-0.675392,0.11224,99.050003,-8.7325,-104.772499,32.450001,831.099976,-0.18,-0.057,0.1425, 0.100000,-1.100000,-0.100000
3313995,0.06344,-0.738344,0.033672,108.010002,49.227501,-113.330002,32.48,829.23999,-0.2265,-0.0615,0.138,-0.200000,-0.500000, 0.500000
3314025,0.051728,-0.632448,-0.0122,115.237503,87.377502,-116.550003,32.450001,831.309998,-0.2505,-0.048,0.1335,-0.600000,-0.400000,-0.400000
3314055,0.044896,-0.828136,-0.026352,123.602501,127.855003,-115.587502,32.400002,829.940002,-0.303,-0.0255,0.138, 0.000000,-0.700000,-0.200000
3314085,-0.07076,-0.991128,-0.12688,132.300003,149.380005,-109.532501,32.450001,831.099976,-0.3255,0.0045,0.1395, 0.400000, 0.900000,-0.600000
3314115,0.05856,-0.81984,0.083448,136.815002,147.857498,-94.885002,32.450001,829.820007,-0.3735,0.045,0.1275, 0.200000, 0.700000, 0.000000
3314145,0.016592,-0.716384,-0.186416,141.977493,140.455002,-76.300003,32.360001,829.890015,-0.4125,0.0795,0.111,-0.400000, 0.000000,-0.600000
3314175,0.081008,-0.839848,0.019032,144.357498,126.559998,-63.192501,32.400002,828.669983,-0.4365,0.105,0.099,-0.400000, 0.100000, 0.500000
3314206,0.012688,-1.331752,-0.061976,144.024994,110.739998,-53.8475,32.380001,830.340027,-0.468,0.15,0.0525,-1.200000, 0.000000, 0.400000
3314236,0.018056,-0.87352,-0.002928,144.007507,104.5625,-46.0425,32.48,830.299988,-0.4905,0.1605,0.039,-0.300000, 0.800000,-0.400000
3314266,0.00244,-0.754936,-0.040504,147.595001,118.195,-38.657501,32.41,830.400024,-0.516,0.183,-0.0105, 0.300000,-0.300000, 0.600000
3314296,0.046848,-0.74176,-0.02684,147.192505,120.032501,-32.900002,32.400002,830.369995,-0.5235,0.207,-0.042,-0.300000,-0.500000, 0.600000
3314326,0.108824,-0.639768,-0.002928,148.277496,129.255005,-26.932501,32.380001,829.48999,-0.5505,0.2265,-0.093,-0.600000, 0.800000,-0.600000
3314356,0.083936,-0.794952,0.032696,146.684998,135.117493,-22.924999,32.43,830.849976,-0.5655,0.2415,-0.12, 0.100000, 0.500000,-0.500000
3314386,-0.042944,-0.86864,0.016104,145.092499,132.807495,-19.459999,32.43,830.429993,-0.573,0.264,-0.189, 0.000000, 0.400000, 0.600000
3314416,-0.083936,-0.928664,-0.03172,139.667496,109.584999,-15.0325,32.450001,830.460022,-0.576,0.276,-0.225, 0.000000, 0.800000, 0.400000
3314446,-0.06588,-0.768112,-0.033672,131.022507,70.017502,-11.865,32.48,829.880005,-0.582,0.288,-0.2895, 0.100000,-0.800000, 0.400000
3314476,-0.047824,-0.587064,-0.050752,122.885002,38.150002,-11.305,32.43,830.210022,-0.5805,0.2895,-0.3105, 0.800000,-0.400000,-0.100000
3314507,-0.092232,-0.557784,0.003416,112.245003,-2.625,-14.91,32.400002,830.580017,-0.5775,0.297,-0.36,-0.500000, 0.100000, 0.300000
3314537,-0.123952,-0.528992,-0.028304,100.065002,-48.509998,-20.790001,32.459999,829.419983,-0.5745,0.3015,-0.372,-0.100000,-0.500000,-0.800000
3314567,-0.076128,-0.496784,-0.063928,88.025002,-93.047501,-29.7675,32.380001,829.700012,-0.579,0.306,-0.3915, 0.000000, 0.900000, 0.000000
3314597,-0.17812,-0.68808,-0.0854,69.842499,-152.145004,-41.772499,32.360001,830.950012,-0.5655,0.3105,-0.3945, 0.100000, 0.700000, 0.300000
3314627,0.002928,-0.491416,-0.089304,45.884998,-233.782501,-48.912498,32.400002,829.940002,-0.5565,0.321,-0.3705,-0.300000, 0.500000, 0.300000
3314657,-0.12688,-0.644648,-0.091744,22.365,-295.75,-54.302502,32.360001,830.73999,-0.558,0.3135,-0.3495, 0.000000, 0.500000, 0.500000
3314687,-0.015128,-0.583648,-0.049288,-2.3275,-352.589996,-52.8325,32.450001,830.460022,-0.561,0.312,-0.285,-0.300000, 0.500000, 0.300000
3314717,0.050752,-0.732976,-0.103456,-22.102501,-390.459991,-47.162498,32.360001,831.380005,-0.5535,0.3,-0.243,-1.500000, 0.400000, 0.400000
3314747,0.072712,-0.855464,0.108336,-43.470001,-412.142487,-34.4925,32.459999,830.700012,-0.546,0.27,-0.1635, 0.100000,-0.400000, 0.200000
3314777,0.351848,-0.936472,0.00976,-56.349998,-395.079987,-18.112499,32.43,830.640015,-0.5535,0.2445,-0.1185, 0.500000,-0.400000,-1.000000
3314808,0.328912,-0.904264,-0.007808,-59.744999,-375.654999,-5.9675,32.43,830.849976,-0.5445,0.1905,-0.048,-0.400000, 0.000000, 0.400000
3314838,0.352336,-0.77836,0.025864,-54.6175,-350.140015,1.295,32.41,829.549988,-0.5385,0.156,-0.0225,-0.500000,-0.200000, 0.400000
3314868,0.149328,-0.610488,-0.010248,-46.497501,-326.602509,9.03,32.43,831.070007,-0.5145,0.1065,-0.0015, 0.400000, 0.200000, 0.400000
3314898,0.39528,-0.522648,0.013176,-37.695,-299.600006,13.0725,32.48,829.450012,-0.5145,0.069,0.012,-0.200000,-0.700000,-0.600000
3314928,0.202032,-0.424072,-0.055632,-30.6425,-273.839996,13.755,32.459999,830.27002,-0.498,0.018,0.0105, 0.600000, 0.000000, 0.500000
3314958,0.189832,-0.379664,-0.061,-23.887501,-247.029999,15.75,32.400002,830.369995,-0.498,-0.0165,-0.006, 0.100000, 0.800000, 0.400000
3314988,0.205936,-0.369904,-0.061,-17.657499,-223.860001,15.925,32.459999,830.909973,-0.4875,-0.045,-0.0225, 0.500000,-0.500000,-0.300000
3315018,0.172264,-0.413824,-0.061488,-11.3925,-199.202499,14.7,32.400002,830.799988,-0.483,-0.063,-0.0435,-0.400000,-0.300000,-0.300000
3315048,0.166408,-0.422608,-0.053192,-4.4275,-174.772507,12.6875,32.459999,830.909973,-0.471,-0.0975,-0.0735,-0.600000,-0.500000, 0.300000
3315078,0.15372,-0.413336,-0.042944,3.0975,-147.175003,8.6625,32.48,831.150024,-0.4695,-0.1065,-0.09,-0.700000, 0.600000,-0.700000
3315109,0.111752,-0.44408,-0.025376,10.5175,-122.377502,3.885,32.43,831.280029,-0.462,-0.1245,-0.1215, 0.300000, 0.000000,-0.500000
3315139,0.118096,-0.591456,0.002928,19.565001,-98.122498,-0.1225,32.41,830.609985,-0.4635,-0.1245,-0.138,-0.200000,-0.400000, 0.200000
3315169,0.097112,-0.596824,0.01952,32.41,-71.084999,-5.5825,32.459999,830.909973,-0.453,-0.1305,-0.1635,-0.800000, 0.700000,-0.300000
3315199,0.056608,-0.56608,0.015616,47.389999,-40.197498,-11.8825,32.450001,830.460022,-0.468,-0.1365,-0.177, 0.100000,-0.300000, 0.200000
3315229,0.032696,-0.563152,0.011224,59.220001,-22.049999,-14.735,32.450001,832.159973,-0.471,-0.138,-0.2145, 0.800000,-1.100000,-0.100000
3315259,0.049776,-0.591456,0.016592,70.577499,-6.055,-16.764999,32.450001,831.309998,-0.474,-0.1305,-0.216, 0.000000, 0.600000, 0.600000
3315289,0.020008,-0.629032,0.006832,81.0075,8.3125,-17.219999,32.360001,829.890015,-0.4725,-0.1275,-0.2325,-0.700000,-1.200000, 0.500000
3315319,0.02684,-0.816424,0.02684,93.1875,23.6075,-15.0675,32.400002,830.580017,-0.486,-0.114,-0.252,-0.100000, 0.500000, 0.100000
3315349,0.003416,-0.842776,0.010736,103.809998,34.352501,-10.395,32.490002,831.820007,-0.498,-0.12,-0.258,-0.100000, 0.900000, 0.000000
